{"clinicalData": {
    "studyOID": "cdisc.com/CDISCPILOT01",
    "metaDataVersionOID": "MDV.MSGv2.0.SDTMIG.3.3.SDTM.1.7",
    "itemGroupData": {"IG.QSPH": {
        "records": 330,
        "name": "QSPH",
        "label": "Questionnaires (PHQ-9)",
        "items": [
            {
                "OID": "ITEMGROUPDATASEQ",
                "name": "ITEMGROUPDATASEQ",
                "label": "Record Identifier",
                "type": "integer"
            },
            {
                "OID": "IT.QSPH.STUDYID",
                "name": "STUDYID",
                "label": "Study Identifier",
                "type": "string",
                "length": 12
            },
            {
                "OID": "IT.QSPH.DOMAIN",
                "name": "DOMAIN",
                "label": "Domain Abbreviation",
                "type": "string",
                "length": 4
            },
            {
                "OID": "IT.QSPH.USUBJID",
                "name": "USUBJID",
                "label": "Unique Subject Identifier",
                "type": "string",
                "length": 8
            },
            {
                "OID": "IT.QSPH.QSSEQ",
                "name": "QSSEQ",
                "label": "Sequence Number",
                "type": "integer",
                "length": 3
            },
            {
                "OID": "IT.QSPH.QSTESTCD",
                "name": "QSTESTCD",
                "label": "Question Short Name",
                "type": "string",
                "length": 7
            },
            {
                "OID": "IT.QSPH.QSTEST",
                "name": "QSTEST",
                "label": "Question Name",
                "type": "string",
                "length": 40
            },
            {
                "OID": "IT.QSPH.QSCAT",
                "name": "QSCAT",
                "label": "Category of Question",
                "type": "string",
                "length": 5
            },
            {
                "OID": "IT.QSPH.QSORRES",
                "name": "QSORRES",
                "label": "Finding in Original Units",
                "type": "string",
                "length": 23
            },
            {
                "OID": "IT.QSPH.QSSTRESC",
                "name": "QSSTRESC",
                "label": "Character Result/Finding in Std Format",
                "type": "string",
                "length": 20
            },
            {
                "OID": "IT.QSPH.QSSTRESN",
                "name": "QSSTRESN",
                "label": "Numeric Finding in Standard Units",
                "type": "integer",
                "length": 8
            },
            {
                "OID": "IT.QSPH.QSLOBXFL",
                "name": "QSLOBXFL",
                "label": "Last Observation Before Exposure Flag",
                "type": "string",
                "length": 1
            },
            {
                "OID": "IT.QSPH.VISITNUM",
                "name": "VISITNUM",
                "label": "Visit Number",
                "type": "float",
                "length": 8,
                "fractionDigits": 2
            },
            {
                "OID": "IT.QSPH.VISIT",
                "name": "VISIT",
                "label": "Visit Name",
                "type": "string",
                "length": 200
            },
            {
                "OID": "IT.QSPH.EPOCH",
                "name": "EPOCH",
                "label": "Epoch",
                "type": "string",
                "length": 9
            },
            {
                "OID": "IT.QSPH.QSDTC",
                "name": "QSDTC",
                "label": "Date/Time of Finding",
                "type": "string"
            },
            {
                "OID": "IT.QSPH.QSDY",
                "name": "QSDY",
                "label": "Study Day of Finding",
                "type": "integer",
                "length": 8
            },
            {
                "OID": "IT.QSPH.QSEVLINT",
                "name": "QSEVLINT",
                "label": "Evaluation Interval",
                "type": "string"
            }
        ],
        "itemData": [
            [
                1,
                "CDISCPILOT01",
                "QS",
                "CDISC001",
                1,
                "PHQ0101_is_much_too_long_testcd",
                "PHQ01-Little Interest/Pleasure in Things",
                "PHQ-9",
                "Several days",
                "1",
                1,
                "Y",
                3,
                "BASELINE",
                "SCREENING",
                "2012-11-30",
                1,
                "-P2W"
            ],
            [
                2,
                "CDISCPILOT01",
                "QS",
                "CDISC001",
                2,
                "PHQ0102",
                "PHQ01-Feeling Down Depressed or Hopeless",
                "PHQ-9",
                "Not at all",
                "0",
                0,
                "Y",
                3,
                "BASELINE",
                "SCREENING",
                "2012-11-30",
                1,
                "-P2W"
            ],
            [
                3,
                "CDISCPILOT01",
                "QS",
                "CDISC001",
                3,
                "PHQ0103",
                "PHQ01-Trouble Falling or Staying Asleep",
                "PHQ-9",
                "Several days",
                "1",
                1,
                "Y",
                3,
                "BASELINE",
                "SCREENING",
                "2012-11-30",
                1,
                "-P2W"
            ],
            [
                4,
                "CDISCPILOT01",
                "QS",
                "CDISC001",
                4,
                "PHQ0104",
                "PHQ01-Feeling Tired or Little Energy",
                "PHQ-9",
                "Not at all",
                "0",
                0,
                "Y",
                3,
                "BASELINE",
                "SCREENING",
                "2012-11-30",
                1,
                "-P2W"
            ],
            [
                5,
                "CDISCPILOT01",
                "QS",
                "CDISC001",
                5,
                "PHQ0105",
                "PHQ01-Poor Appetite or Overeating",
                "PHQ-9",
                "Not at all",
                "0",
                0,
                "Y",
                3,
                "BASELINE",
                "SCREENING",
                "2012-11-30",
                1,
                "-P2W"
            ],
            [
                6,
                "CDISCPILOT01",
                "QS",
                "CDISC001",
                6,
                "PHQ0106",
                "PHQ01-Feeling Bad About Yourself",
                "PHQ-9",
                "Several days",
                "1",
                1,
                "Y",
                3,
                "BASELINE",
                "SCREENING",
                "2012-11-30",
                1,
                "-P2W"
            ],
            [
                7,
                "CDISCPILOT01",
                "QS",
                "CDISC001",
                7,
                "PHQ0107",
                "PHQ01-Trouble Concentrating on Things",
                "PHQ-9",
                "More than half the days",
                "2",
                2,
                "Y",
                3,
                "BASELINE",
                "SCREENING",
                "2012-11-30",
                1,
                "-P2W"
            ],
            [
                8,
                "CDISCPILOT01",
                "QS",
                "CDISC001",
                8,
                "PHQ0108",
                "PHQ01-Moving Slowly or Fidgety/Restless",
                "PHQ-9",
                "Not at all",
                "0",
                0,
                "Y",
                3,
                "BASELINE",
                "SCREENING",
                "2012-11-30",
                1,
                "-P2W"
            ],
            [
                9,
                "CDISCPILOT01",
                "QS",
                "CDISC001",
                9,
                "PHQ0109",
                "PHQ01-Thoughts You Be Better Off Dead",
                "PHQ-9",
                "Not at all",
                "0",
                0,
                "Y",
                3,
                "BASELINE",
                "SCREENING",
                "2012-11-30",
                1,
                "-P2W"
            ],
            [
                10,
                "CDISCPILOT01",
                "QS",
                "CDISC001",
                10,
                "PHQ0110",
                "PHQ01-Difficult to Work/Take Care Things",
                "PHQ-9",
                "Not difficult at all",
                "Not difficult at all",
                null,
                "Y",
                3,
                "BASELINE",
                "SCREENING",
                "2012-11-30",
                1,
                "-P2W"
            ],
            [
                11,
                "CDISCPILOT01",
                "QS",
                "CDISC001",
                11,
                "PHQ0111",
                "PHQ01-Total Score",
                "PHQ-9",
                "5",
                "5",
                5,
                "Y",
                3,
                "BASELINE",
                "SCREENING",
                "2012-11-30",
                1,
                "-P2W"
            ],
            [
                12,
                "CDISCPILOT01",
                "QS",
                "CDISC001",
                17,
                "PHQ0101",
                "PHQ01-Little Interest/Pleasure in Things",
                "PHQ-9",
                "Not at all",
                "0",
                0,
                "",
                201,
                "EARLY DISCONTINUATION RETRIEVAL",
                "TREATMENT",
                "2013-05-20",
                172,
                "-P2W"
            ],
            [
                13,
                "CDISCPILOT01",
                "QS",
                "CDISC001",
                18,
                "PHQ0102",
                "PHQ01-Feeling Down Depressed or Hopeless",
                "PHQ-9",
                "Not at all",
                "0",
                0,
                "",
                201,
                "EARLY DISCONTINUATION RETRIEVAL",
                "TREATMENT",
                "2013-05-20",
                172,
                "-P2W"
            ],
            [
                14,
                "CDISCPILOT01",
                "QS",
                "CDISC001",
                19,
                "PHQ0103",
                "PHQ01-Trouble Falling or Staying Asleep",
                "PHQ-9",
                "Several days",
                "1",
                1,
                "",
                201,
                "EARLY DISCONTINUATION RETRIEVAL",
                "TREATMENT",
                "2013-05-20",
                172,
                "-P2W"
            ],
            [
                15,
                "CDISCPILOT01",
                "QS",
                "CDISC001",
                20,
                "PHQ0104",
                "PHQ01-Feeling Tired or Little Energy",
                "PHQ-9",
                "Several days",
                "1",
                1,
                "",
                201,
                "EARLY DISCONTINUATION RETRIEVAL",
                "TREATMENT",
                "2013-05-20",
                172,
                "-P2W"
            ],
            [
                16,
                "CDISCPILOT01",
                "QS",
                "CDISC001",
                21,
                "PHQ0105",
                "PHQ01-Poor Appetite or Overeating",
                "PHQ-9",
                "Not at all",
                "0",
                0,
                "",
                201,
                "EARLY DISCONTINUATION RETRIEVAL",
                "TREATMENT",
                "2013-05-20",
                172,
                "-P2W"
            ],
            [
                17,
                "CDISCPILOT01",
                "QS",
                "CDISC001",
                22,
                "PHQ0106",
                "PHQ01-Feeling Bad About Yourself",
                "PHQ-9",
                "Several days",
                "1",
                1,
                "",
                201,
                "EARLY DISCONTINUATION RETRIEVAL",
                "TREATMENT",
                "2013-05-20",
                172,
                "-P2W"
            ],
            [
                18,
                "CDISCPILOT01",
                "QS",
                "CDISC001",
                23,
                "PHQ0107",
                "PHQ01-Trouble Concentrating on Things",
                "PHQ-9",
                "More than half the days",
                "2",
                2,
                "",
                201,
                "EARLY DISCONTINUATION RETRIEVAL",
                "TREATMENT",
                "2013-05-20",
                172,
                "-P2W"
            ],
            [
                19,
                "CDISCPILOT01",
                "QS",
                "CDISC001",
                24,
                "PHQ0108",
                "PHQ01-Moving Slowly or Fidgety/Restless",
                "PHQ-9",
                "Not at all",
                "0",
                0,
                "",
                201,
                "EARLY DISCONTINUATION RETRIEVAL",
                "TREATMENT",
                "2013-05-20",
                172,
                "-P2W"
            ],
            [
                20,
                "CDISCPILOT01",
                "QS",
                "CDISC001",
                25,
                "PHQ0109",
                "PHQ01-Thoughts You Be Better Off Dead",
                "PHQ-9",
                "Not at all",
                "0",
                0,
                "",
                201,
                "EARLY DISCONTINUATION RETRIEVAL",
                "TREATMENT",
                "2013-05-20",
                172,
                "-P2W"
            ],
            [
                21,
                "CDISCPILOT01",
                "QS",
                "CDISC001",
                26,
                "PHQ0110",
                "PHQ01-Difficult to Work/Take Care Things",
                "PHQ-9",
                "Not difficult at all",
                "Not difficult at all",
                null,
                "",
                201,
                "EARLY DISCONTINUATION RETRIEVAL",
                "TREATMENT",
                "2013-05-20",
                172,
                "-P2W"
            ],
            [
                22,
                "CDISCPILOT01",
                "QS",
                "CDISC001",
                27,
                "PHQ0111",
                "PHQ01-Total Score",
                "PHQ-9",
                "5",
                "5",
                5,
                "",
                201,
                "EARLY DISCONTINUATION RETRIEVAL",
                "TREATMENT",
                "2013-05-20",
                172,
                "-P2W"
            ],
            [
                23,
                "CDISCPILOT01",
                "QS",
                "CDISC002",
                1,
                "PHQ0101",
                "PHQ01-Little Interest/Pleasure in Things",
                "PHQ-9",
                "More than half the days",
                "2",
                2,
                "Y",
                3,
                "BASELINE",
                "SCREENING",
                "2012-11-15",
                1,
                "-P2W"
            ],
            [
                24,
                "CDISCPILOT01",
                "QS",
                "CDISC002",
                2,
                "PHQ0102",
                "PHQ01-Feeling Down Depressed or Hopeless",
                "PHQ-9",
                "More than half the days",
                "2",
                2,
                "Y",
                3,
                "BASELINE",
                "SCREENING",
                "2012-11-15",
                1,
                "-P2W"
            ],
            [
                25,
                "CDISCPILOT01",
                "QS",
                "CDISC002",
                3,
                "PHQ0103",
                "PHQ01-Trouble Falling or Staying Asleep",
                "PHQ-9",
                "More than half the days",
                "2",
                2,
                "Y",
                3,
                "BASELINE",
                "SCREENING",
                "2012-11-15",
                1,
                "-P2W"
            ],
            [
                26,
                "CDISCPILOT01",
                "QS",
                "CDISC002",
                4,
                "PHQ0104",
                "PHQ01-Feeling Tired or Little Energy",
                "PHQ-9",
                "More than half the days",
                "2",
                2,
                "Y",
                3,
                "BASELINE",
                "SCREENING",
                "2012-11-15",
                1,
                "-P2W"
            ],
            [
                27,
                "CDISCPILOT01",
                "QS",
                "CDISC002",
                5,
                "PHQ0105",
                "PHQ01-Poor Appetite or Overeating",
                "PHQ-9",
                "More than half the days",
                "2",
                2,
                "Y",
                3,
                "BASELINE",
                "SCREENING",
                "2012-11-15",
                1,
                "-P2W"
            ],
            [
                28,
                "CDISCPILOT01",
                "QS",
                "CDISC002",
                6,
                "PHQ0106",
                "PHQ01-Feeling Bad About Yourself",
                "PHQ-9",
                "Nearly every day",
                "3",
                3,
                "Y",
                3,
                "BASELINE",
                "SCREENING",
                "2012-11-15",
                1,
                "-P2W"
            ],
            [
                29,
                "CDISCPILOT01",
                "QS",
                "CDISC002",
                7,
                "PHQ0107",
                "PHQ01-Trouble Concentrating on Things",
                "PHQ-9",
                "More than half the days",
                "2",
                2,
                "Y",
                3,
                "BASELINE",
                "SCREENING",
                "2012-11-15",
                1,
                "-P2W"
            ],
            [
                30,
                "CDISCPILOT01",
                "QS",
                "CDISC002",
                8,
                "PHQ0108",
                "PHQ01-Moving Slowly or Fidgety/Restless",
                "PHQ-9",
                "Nearly every day",
                "3",
                3,
                "Y",
                3,
                "BASELINE",
                "SCREENING",
                "2012-11-15",
                1,
                "-P2W"
            ],
            [
                31,
                "CDISCPILOT01",
                "QS",
                "CDISC002",
                9,
                "PHQ0109",
                "PHQ01-Thoughts You Be Better Off Dead",
                "PHQ-9",
                "Nearly every day",
                "3",
                3,
                "Y",
                3,
                "BASELINE",
                "SCREENING",
                "2012-11-15",
                1,
                "-P2W"
            ],
            [
                32,
                "CDISCPILOT01",
                "QS",
                "CDISC002",
                10,
                "PHQ0110",
                "PHQ01-Difficult to Work/Take Care Things",
                "PHQ-9",
                "Somewhat difficult",
                "Somewhat difficult",
                null,
                "Y",
                3,
                "BASELINE",
                "SCREENING",
                "2012-11-15",
                1,
                "-P2W"
            ],
            [
                33,
                "CDISCPILOT01",
                "QS",
                "CDISC002",
                11,
                "PHQ0111",
                "PHQ01-Total Score",
                "PHQ-9",
                "21",
                "21",
                21,
                "Y",
                3,
                "BASELINE",
                "SCREENING",
                "2012-11-15",
                1,
                "-P2W"
            ],
            [
                34,
                "CDISCPILOT01",
                "QS",
                "CDISC003",
                1,
                "PHQ0101",
                "PHQ01-Little Interest/Pleasure in Things",
                "PHQ-9",
                "Not at all",
                "0",
                0,
                "Y",
                3,
                "BASELINE",
                "SCREENING",
                "2013-08-29",
                1,
                "-P2W"
            ],
            [
                35,
                "CDISCPILOT01",
                "QS",
                "CDISC003",
                2,
                "PHQ0102",
                "PHQ01-Feeling Down Depressed or Hopeless",
                "PHQ-9",
                "Not at all",
                "0",
                0,
                "Y",
                3,
                "BASELINE",
                "SCREENING",
                "2013-08-29",
                1,
                "-P2W"
            ],
            [
                36,
                "CDISCPILOT01",
                "QS",
                "CDISC003",
                3,
                "PHQ0103",
                "PHQ01-Trouble Falling or Staying Asleep",
                "PHQ-9",
                "Not at all",
                "0",
                0,
                "Y",
                3,
                "BASELINE",
                "SCREENING",
                "2013-08-29",
                1,
                "-P2W"
            ],
            [
                37,
                "CDISCPILOT01",
                "QS",
                "CDISC003",
                4,
                "PHQ0104",
                "PHQ01-Feeling Tired or Little Energy",
                "PHQ-9",
                "Not at all",
                "0",
                0,
                "Y",
                3,
                "BASELINE",
                "SCREENING",
                "2013-08-29",
                1,
                "-P2W"
            ],
            [
                38,
                "CDISCPILOT01",
                "QS",
                "CDISC003",
                5,
                "PHQ0105",
                "PHQ01-Poor Appetite or Overeating",
                "PHQ-9",
                "Not at all",
                "0",
                0,
                "Y",
                3,
                "BASELINE",
                "SCREENING",
                "2013-08-29",
                1,
                "-P2W"
            ],
            [
                39,
                "CDISCPILOT01",
                "QS",
                "CDISC003",
                6,
                "PHQ0106",
                "PHQ01-Feeling Bad About Yourself",
                "PHQ-9",
                "Not at all",
                "0",
                0,
                "Y",
                3,
                "BASELINE",
                "SCREENING",
                "2013-08-29",
                1,
                "-P2W"
            ],
            [
                40,
                "CDISCPILOT01",
                "QS",
                "CDISC003",
                7,
                "PHQ0107",
                "PHQ01-Trouble Concentrating on Things",
                "PHQ-9",
                "Several days",
                "1",
                1,
                "Y",
                3,
                "BASELINE",
                "SCREENING",
                "2013-08-29",
                1,
                "-P2W"
            ],
            [
                41,
                "CDISCPILOT01",
                "QS",
                "CDISC003",
                8,
                "PHQ0108",
                "PHQ01-Moving Slowly or Fidgety/Restless",
                "PHQ-9",
                "Not at all",
                "0",
                0,
                "Y",
                3,
                "BASELINE",
                "SCREENING",
                "2013-08-29",
                1,
                "-P2W"
            ],
            [
                42,
                "CDISCPILOT01",
                "QS",
                "CDISC003",
                9,
                "PHQ0109",
                "PHQ01-Thoughts You Be Better Off Dead",
                "PHQ-9",
                "Several days",
                "1",
                1,
                "Y",
                3,
                "BASELINE",
                "SCREENING",
                "2013-08-29",
                1,
                "-P2W"
            ],
            [
                43,
                "CDISCPILOT01",
                "QS",
                "CDISC003",
                10,
                "PHQ0110",
                "PHQ01-Difficult to Work/Take Care Things",
                "PHQ-9",
                "Not difficult at all",
                "Not difficult at all",
                null,
                "Y",
                3,
                "BASELINE",
                "SCREENING",
                "2013-08-29",
                1,
                "-P2W"
            ],
            [
                44,
                "CDISCPILOT01",
                "QS",
                "CDISC003",
                11,
                "PHQ0111",
                "PHQ01-Total Score",
                "PHQ-9",
                "2",
                "2",
                2,
                "Y",
                3,
                "BASELINE",
                "SCREENING",
                "2013-08-29",
                1,
                "-P2W"
            ],
            [
                45,
                "CDISCPILOT01",
                "QS",
                "CDISC003",
                17,
                "PHQ0101",
                "PHQ01-Little Interest/Pleasure in Things",
                "PHQ-9",
                "Not at all",
                "0",
                0,
                "",
                9,
                "WEEK 12",
                "TREATMENT",
                "2013-11-05",
                69,
                "-P2W"
            ],
            [
                46,
                "CDISCPILOT01",
                "QS",
                "CDISC003",
                18,
                "PHQ0102",
                "PHQ01-Feeling Down Depressed or Hopeless",
                "PHQ-9",
                "Not at all",
                "0",
                0,
                "",
                9,
                "WEEK 12",
                "TREATMENT",
                "2013-11-05",
                69,
                "-P2W"
            ],
            [
                47,
                "CDISCPILOT01",
                "QS",
                "CDISC003",
                19,
                "PHQ0103",
                "PHQ01-Trouble Falling or Staying Asleep",
                "PHQ-9",
                "Not at all",
                "0",
                0,
                "",
                9,
                "WEEK 12",
                "TREATMENT",
                "2013-11-05",
                69,
                "-P2W"
            ],
            [
                48,
                "CDISCPILOT01",
                "QS",
                "CDISC003",
                20,
                "PHQ0104",
                "PHQ01-Feeling Tired or Little Energy",
                "PHQ-9",
                "Not at all",
                "0",
                0,
                "",
                9,
                "WEEK 12",
                "TREATMENT",
                "2013-11-05",
                69,
                "-P2W"
            ],
            [
                49,
                "CDISCPILOT01",
                "QS",
                "CDISC003",
                21,
                "PHQ0105",
                "PHQ01-Poor Appetite or Overeating",
                "PHQ-9",
                "Not at all",
                "0",
                0,
                "",
                9,
                "WEEK 12",
                "TREATMENT",
                "2013-11-05",
                69,
                "-P2W"
            ],
            [
                50,
                "CDISCPILOT01",
                "QS",
                "CDISC003",
                22,
                "PHQ0106",
                "PHQ01-Feeling Bad About Yourself",
                "PHQ-9",
                "Several days",
                "1",
                1,
                "",
                9,
                "WEEK 12",
                "TREATMENT",
                "2013-11-05",
                69,
                "-P2W"
            ],
            [
                51,
                "CDISCPILOT01",
                "QS",
                "CDISC003",
                23,
                "PHQ0107",
                "PHQ01-Trouble Concentrating on Things",
                "PHQ-9",
                "Not at all",
                "0",
                0,
                "",
                9,
                "WEEK 12",
                "TREATMENT",
                "2013-11-05",
                69,
                "-P2W"
            ],
            [
                52,
                "CDISCPILOT01",
                "QS",
                "CDISC003",
                24,
                "PHQ0108",
                "PHQ01-Moving Slowly or Fidgety/Restless",
                "PHQ-9",
                "Not at all",
                "0",
                0,
                "",
                9,
                "WEEK 12",
                "TREATMENT",
                "2013-11-05",
                69,
                "-P2W"
            ],
            [
                53,
                "CDISCPILOT01",
                "QS",
                "CDISC003",
                25,
                "PHQ0109",
                "PHQ01-Thoughts You Be Better Off Dead",
                "PHQ-9",
                "Several days",
                "1",
                1,
                "",
                9,
                "WEEK 12",
                "TREATMENT",
                "2013-11-05",
                69,
                "-P2W"
            ],
            [
                54,
                "CDISCPILOT01",
                "QS",
                "CDISC003",
                26,
                "PHQ0110",
                "PHQ01-Difficult to Work/Take Care Things",
                "PHQ-9",
                "Not difficult at all",
                "Not difficult at all",
                null,
                "",
                9,
                "WEEK 12",
                "TREATMENT",
                "2013-11-05",
                69,
                "-P2W"
            ],
            [
                55,
                "CDISCPILOT01",
                "QS",
                "CDISC003",
                27,
                "PHQ0111",
                "PHQ01-Total Score",
                "PHQ-9",
                "2",
                "2",
                2,
                "",
                9,
                "WEEK 12",
                "TREATMENT",
                "2013-11-05",
                69,
                "-P2W"
            ],
            [
                56,
                "CDISCPILOT01",
                "QS",
                "CDISC003",
                33,
                "PHQ0101",
                "PHQ01-Little Interest/Pleasure in Things",
                "PHQ-9",
                "Not at all",
                "0",
                0,
                "",
                201,
                "EARLY DISCONTINUATION RETRIEVAL",
                "TREATMENT",
                "2014-02-13",
                169,
                "-P2W"
            ],
            [
                57,
                "CDISCPILOT01",
                "QS",
                "CDISC003",
                34,
                "PHQ0102",
                "PHQ01-Feeling Down Depressed or Hopeless",
                "PHQ-9",
                "Not at all",
                "0",
                0,
                "",
                201,
                "EARLY DISCONTINUATION RETRIEVAL",
                "TREATMENT",
                "2014-02-13",
                169,
                "-P2W"
            ],
            [
                58,
                "CDISCPILOT01",
                "QS",
                "CDISC003",
                35,
                "PHQ0103",
                "PHQ01-Trouble Falling or Staying Asleep",
                "PHQ-9",
                "Not at all",
                "0",
                0,
                "",
                201,
                "EARLY DISCONTINUATION RETRIEVAL",
                "TREATMENT",
                "2014-02-13",
                169,
                "-P2W"
            ],
            [
                59,
                "CDISCPILOT01",
                "QS",
                "CDISC003",
                36,
                "PHQ0104",
                "PHQ01-Feeling Tired or Little Energy",
                "PHQ-9",
                "Not at all",
                "0",
                0,
                "",
                201,
                "EARLY DISCONTINUATION RETRIEVAL",
                "TREATMENT",
                "2014-02-13",
                169,
                "-P2W"
            ],
            [
                60,
                "CDISCPILOT01",
                "QS",
                "CDISC003",
                37,
                "PHQ0105",
                "PHQ01-Poor Appetite or Overeating",
                "PHQ-9",
                "Several days",
                "1",
                1,
                "",
                201,
                "EARLY DISCONTINUATION RETRIEVAL",
                "TREATMENT",
                "2014-02-13",
                169,
                "-P2W"
            ],
            [
                61,
                "CDISCPILOT01",
                "QS",
                "CDISC003",
                38,
                "PHQ0106",
                "PHQ01-Feeling Bad About Yourself",
                "PHQ-9",
                "Not at all",
                "0",
                0,
                "",
                201,
                "EARLY DISCONTINUATION RETRIEVAL",
                "TREATMENT",
                "2014-02-13",
                169,
                "-P2W"
            ],
            [
                62,
                "CDISCPILOT01",
                "QS",
                "CDISC003",
                39,
                "PHQ0107",
                "PHQ01-Trouble Concentrating on Things",
                "PHQ-9",
                "Not at all",
                "0",
                0,
                "",
                201,
                "EARLY DISCONTINUATION RETRIEVAL",
                "TREATMENT",
                "2014-02-13",
                169,
                "-P2W"
            ],
            [
                63,
                "CDISCPILOT01",
                "QS",
                "CDISC003",
                40,
                "PHQ0108",
                "PHQ01-Moving Slowly or Fidgety/Restless",
                "PHQ-9",
                "Not at all",
                "0",
                0,
                "",
                201,
                "EARLY DISCONTINUATION RETRIEVAL",
                "TREATMENT",
                "2014-02-13",
                169,
                "-P2W"
            ],
            [
                64,
                "CDISCPILOT01",
                "QS",
                "CDISC003",
                41,
                "PHQ0109",
                "PHQ01-Thoughts You Be Better Off Dead",
                "PHQ-9",
                "Several days",
                "1",
                1,
                "",
                201,
                "EARLY DISCONTINUATION RETRIEVAL",
                "TREATMENT",
                "2014-02-13",
                169,
                "-P2W"
            ],
            [
                65,
                "CDISCPILOT01",
                "QS",
                "CDISC003",
                42,
                "PHQ0110",
                "PHQ01-Difficult to Work/Take Care Things",
                "PHQ-9",
                "Not difficult at all",
                "Not difficult at all",
                null,
                "",
                201,
                "EARLY DISCONTINUATION RETRIEVAL",
                "TREATMENT",
                "2014-02-13",
                169,
                "-P2W"
            ],
            [
                66,
                "CDISCPILOT01",
                "QS",
                "CDISC003",
                43,
                "PHQ0111",
                "PHQ01-Total Score",
                "PHQ-9",
                "2",
                "2",
                2,
                "",
                201,
                "EARLY DISCONTINUATION RETRIEVAL",
                "TREATMENT",
                "2014-02-13",
                169,
                "-P2W"
            ],
            [
                67,
                "CDISCPILOT01",
                "QS",
                "CDISC004",
                1,
                "PHQ0101",
                "PHQ01-Little Interest/Pleasure in Things",
                "PHQ-9",
                "Nearly every day",
                "3",
                3,
                "Y",
                3,
                "BASELINE",
                "SCREENING",
                "2013-10-08",
                1,
                "-P2W"
            ],
            [
                68,
                "CDISCPILOT01",
                "QS",
                "CDISC004",
                2,
                "PHQ0102",
                "PHQ01-Feeling Down Depressed or Hopeless",
                "PHQ-9",
                "Nearly every day",
                "3",
                3,
                "Y",
                3,
                "BASELINE",
                "SCREENING",
                "2013-10-08",
                1,
                "-P2W"
            ],
            [
                69,
                "CDISCPILOT01",
                "QS",
                "CDISC004",
                3,
                "PHQ0103",
                "PHQ01-Trouble Falling or Staying Asleep",
                "PHQ-9",
                "Nearly every day",
                "3",
                3,
                "Y",
                3,
                "BASELINE",
                "SCREENING",
                "2013-10-08",
                1,
                "-P2W"
            ],
            [
                70,
                "CDISCPILOT01",
                "QS",
                "CDISC004",
                4,
                "PHQ0104",
                "PHQ01-Feeling Tired or Little Energy",
                "PHQ-9",
                "Nearly every day",
                "3",
                3,
                "Y",
                3,
                "BASELINE",
                "SCREENING",
                "2013-10-08",
                1,
                "-P2W"
            ],
            [
                71,
                "CDISCPILOT01",
                "QS",
                "CDISC004",
                5,
                "PHQ0105",
                "PHQ01-Poor Appetite or Overeating",
                "PHQ-9",
                "Nearly every day",
                "3",
                3,
                "Y",
                3,
                "BASELINE",
                "SCREENING",
                "2013-10-08",
                1,
                "-P2W"
            ],
            [
                72,
                "CDISCPILOT01",
                "QS",
                "CDISC004",
                6,
                "PHQ0106",
                "PHQ01-Feeling Bad About Yourself",
                "PHQ-9",
                "Nearly every day",
                "3",
                3,
                "Y",
                3,
                "BASELINE",
                "SCREENING",
                "2013-10-08",
                1,
                "-P2W"
            ],
            [
                73,
                "CDISCPILOT01",
                "QS",
                "CDISC004",
                7,
                "PHQ0107",
                "PHQ01-Trouble Concentrating on Things",
                "PHQ-9",
                "More than half the days",
                "2",
                2,
                "Y",
                3,
                "BASELINE",
                "SCREENING",
                "2013-10-08",
                1,
                "-P2W"
            ],
            [
                74,
                "CDISCPILOT01",
                "QS",
                "CDISC004",
                8,
                "PHQ0108",
                "PHQ01-Moving Slowly or Fidgety/Restless",
                "PHQ-9",
                "Nearly every day",
                "3",
                3,
                "Y",
                3,
                "BASELINE",
                "SCREENING",
                "2013-10-08",
                1,
                "-P2W"
            ],
            [
                75,
                "CDISCPILOT01",
                "QS",
                "CDISC004",
                9,
                "PHQ0109",
                "PHQ01-Thoughts You Be Better Off Dead",
                "PHQ-9",
                "Nearly every day",
                "3",
                3,
                "Y",
                3,
                "BASELINE",
                "SCREENING",
                "2013-10-08",
                1,
                "-P2W"
            ],
            [
                76,
                "CDISCPILOT01",
                "QS",
                "CDISC004",
                10,
                "PHQ0110",
                "PHQ01-Difficult to Work/Take Care Things",
                "PHQ-9",
                "Very difficult",
                "Very difficult",
                null,
                "Y",
                3,
                "BASELINE",
                "SCREENING",
                "2013-10-08",
                1,
                "-P2W"
            ],
            [
                77,
                "CDISCPILOT01",
                "QS",
                "CDISC004",
                11,
                "PHQ0111",
                "PHQ01-Total Score",
                "PHQ-9",
                "27",
                "27",
                27,
                "Y",
                3,
                "BASELINE",
                "SCREENING",
                "2013-10-08",
                1,
                "-P2W"
            ],
            [
                78,
                "CDISCPILOT01",
                "QS",
                "CDISC007",
                1,
                "PHQ0101",
                "PHQ01-Little Interest/Pleasure in Things",
                "PHQ-9",
                "Several days",
                "1",
                1,
                "Y",
                3,
                "BASELINE",
                "SCREENING",
                "2013-01-05",
                1,
                "-P2W"
            ],
            [
                79,
                "CDISCPILOT01",
                "QS",
                "CDISC007",
                2,
                "PHQ0102",
                "PHQ01-Feeling Down Depressed or Hopeless",
                "PHQ-9",
                "Not at all",
                "0",
                0,
                "Y",
                3,
                "BASELINE",
                "SCREENING",
                "2013-01-05",
                1,
                "-P2W"
            ],
            [
                80,
                "CDISCPILOT01",
                "QS",
                "CDISC007",
                3,
                "PHQ0103",
                "PHQ01-Trouble Falling or Staying Asleep",
                "PHQ-9",
                "Several days",
                "1",
                1,
                "Y",
                3,
                "BASELINE",
                "SCREENING",
                "2013-01-05",
                1,
                "-P2W"
            ],
            [
                81,
                "CDISCPILOT01",
                "QS",
                "CDISC007",
                4,
                "PHQ0104",
                "PHQ01-Feeling Tired or Little Energy",
                "PHQ-9",
                "Not at all",
                "0",
                0,
                "Y",
                3,
                "BASELINE",
                "SCREENING",
                "2013-01-05",
                1,
                "-P2W"
            ],
            [
                82,
                "CDISCPILOT01",
                "QS",
                "CDISC007",
                5,
                "PHQ0105",
                "PHQ01-Poor Appetite or Overeating",
                "PHQ-9",
                "Not at all",
                "0",
                0,
                "Y",
                3,
                "BASELINE",
                "SCREENING",
                "2013-01-05",
                1,
                "-P2W"
            ],
            [
                83,
                "CDISCPILOT01",
                "QS",
                "CDISC007",
                6,
                "PHQ0106",
                "PHQ01-Feeling Bad About Yourself",
                "PHQ-9",
                "Several days",
                "1",
                1,
                "Y",
                3,
                "BASELINE",
                "SCREENING",
                "2013-01-05",
                1,
                "-P2W"
            ],
            [
                84,
                "CDISCPILOT01",
                "QS",
                "CDISC007",
                7,
                "PHQ0107",
                "PHQ01-Trouble Concentrating on Things",
                "PHQ-9",
                "Not at all",
                "0",
                0,
                "Y",
                3,
                "BASELINE",
                "SCREENING",
                "2013-01-05",
                1,
                "-P2W"
            ],
            [
                85,
                "CDISCPILOT01",
                "QS",
                "CDISC007",
                8,
                "PHQ0108",
                "PHQ01-Moving Slowly or Fidgety/Restless",
                "PHQ-9",
                "Several days",
                "1",
                1,
                "Y",
                3,
                "BASELINE",
                "SCREENING",
                "2013-01-05",
                1,
                "-P2W"
            ],
            [
                86,
                "CDISCPILOT01",
                "QS",
                "CDISC007",
                9,
                "PHQ0109",
                "PHQ01-Thoughts You Be Better Off Dead",
                "PHQ-9",
                "Not at all",
                "0",
                0,
                "Y",
                3,
                "BASELINE",
                "SCREENING",
                "2013-01-05",
                1,
                "-P2W"
            ],
            [
                87,
                "CDISCPILOT01",
                "QS",
                "CDISC007",
                10,
                "PHQ0110",
                "PHQ01-Difficult to Work/Take Care Things",
                "PHQ-9",
                "Not difficult at all",
                "Not difficult at all",
                null,
                "Y",
                3,
                "BASELINE",
                "SCREENING",
                "2013-01-05",
                1,
                "-P2W"
            ],
            [
                88,
                "CDISCPILOT01",
                "QS",
                "CDISC007",
                11,
                "PHQ0111",
                "PHQ01-Total Score",
                "PHQ-9",
                "4",
                "4",
                4,
                "Y",
                3,
                "BASELINE",
                "SCREENING",
                "2013-01-05",
                1,
                "-P2W"
            ],
            [
                89,
                "CDISCPILOT01",
                "QS",
                "CDISC008",
                1,
                "PHQ0101",
                "PHQ01-Little Interest/Pleasure in Things",
                "PHQ-9",
                "More than half the days",
                "2",
                2,
                "Y",
                3,
                "BASELINE",
                "SCREENING",
                "2014-05-11",
                1,
                "-P2W"
            ],
            [
                90,
                "CDISCPILOT01",
                "QS",
                "CDISC008",
                2,
                "PHQ0102",
                "PHQ01-Feeling Down Depressed or Hopeless",
                "PHQ-9",
                "Several days",
                "1",
                1,
                "Y",
                3,
                "BASELINE",
                "SCREENING",
                "2014-05-11",
                1,
                "-P2W"
            ],
            [
                91,
                "CDISCPILOT01",
                "QS",
                "CDISC008",
                3,
                "PHQ0103",
                "PHQ01-Trouble Falling or Staying Asleep",
                "PHQ-9",
                "More than half the days",
                "2",
                2,
                "Y",
                3,
                "BASELINE",
                "SCREENING",
                "2014-05-11",
                1,
                "-P2W"
            ],
            [
                92,
                "CDISCPILOT01",
                "QS",
                "CDISC008",
                4,
                "PHQ0104",
                "PHQ01-Feeling Tired or Little Energy",
                "PHQ-9",
                "Several days",
                "1",
                1,
                "Y",
                3,
                "BASELINE",
                "SCREENING",
                "2014-05-11",
                1,
                "-P2W"
            ],
            [
                93,
                "CDISCPILOT01",
                "QS",
                "CDISC008",
                5,
                "PHQ0105",
                "PHQ01-Poor Appetite or Overeating",
                "PHQ-9",
                "More than half the days",
                "2",
                2,
                "Y",
                3,
                "BASELINE",
                "SCREENING",
                "2014-05-11",
                1,
                "-P2W"
            ],
            [
                94,
                "CDISCPILOT01",
                "QS",
                "CDISC008",
                6,
                "PHQ0106",
                "PHQ01-Feeling Bad About Yourself",
                "PHQ-9",
                "Several days",
                "1",
                1,
                "Y",
                3,
                "BASELINE",
                "SCREENING",
                "2014-05-11",
                1,
                "-P2W"
            ],
            [
                95,
                "CDISCPILOT01",
                "QS",
                "CDISC008",
                7,
                "PHQ0107",
                "PHQ01-Trouble Concentrating on Things",
                "PHQ-9",
                "Not at all",
                "0",
                0,
                "Y",
                3,
                "BASELINE",
                "SCREENING",
                "2014-05-11",
                1,
                "-P2W"
            ],
            [
                96,
                "CDISCPILOT01",
                "QS",
                "CDISC008",
                8,
                "PHQ0108",
                "PHQ01-Moving Slowly or Fidgety/Restless",
                "PHQ-9",
                "More than half the days",
                "2",
                2,
                "Y",
                3,
                "BASELINE",
                "SCREENING",
                "2014-05-11",
                1,
                "-P2W"
            ],
            [
                97,
                "CDISCPILOT01",
                "QS",
                "CDISC008",
                9,
                "PHQ0109",
                "PHQ01-Thoughts You Be Better Off Dead",
                "PHQ-9",
                "More than half the days",
                "2",
                2,
                "Y",
                3,
                "BASELINE",
                "SCREENING",
                "2014-05-11",
                1,
                "-P2W"
            ],
            [
                98,
                "CDISCPILOT01",
                "QS",
                "CDISC008",
                10,
                "PHQ0110",
                "PHQ01-Difficult to Work/Take Care Things",
                "PHQ-9",
                "Not difficult at all",
                "Not difficult at all",
                null,
                "Y",
                3,
                "BASELINE",
                "SCREENING",
                "2014-05-11",
                1,
                "-P2W"
            ],
            [
                99,
                "CDISCPILOT01",
                "QS",
                "CDISC008",
                11,
                "PHQ0111",
                "PHQ01-Total Score",
                "PHQ-9",
                "13",
                "13",
                13,
                "Y",
                3,
                "BASELINE",
                "SCREENING",
                "2014-05-11",
                1,
                "-P2W"
            ],
            [
                100,
                "CDISCPILOT01",
                "QS",
                "CDISC008",
                17,
                "PHQ0101",
                "PHQ01-Little Interest/Pleasure in Things",
                "PHQ-9",
                "More than half the days",
                "2",
                2,
                "",
                10,
                "WEEK 16",
                "TREATMENT",
                "2014-09-03",
                116,
                "-P2W"
            ],
            [
                101,
                "CDISCPILOT01",
                "QS",
                "CDISC008",
                18,
                "PHQ0102",
                "PHQ01-Feeling Down Depressed or Hopeless",
                "PHQ-9",
                "Several days",
                "1",
                1,
                "",
                10,
                "WEEK 16",
                "TREATMENT",
                "2014-09-03",
                116,
                "-P2W"
            ],
            [
                102,
                "CDISCPILOT01",
                "QS",
                "CDISC008",
                19,
                "PHQ0103",
                "PHQ01-Trouble Falling or Staying Asleep",
                "PHQ-9",
                "Several days",
                "1",
                1,
                "",
                10,
                "WEEK 16",
                "TREATMENT",
                "2014-09-03",
                116,
                "-P2W"
            ],
            [
                103,
                "CDISCPILOT01",
                "QS",
                "CDISC008",
                20,
                "PHQ0104",
                "PHQ01-Feeling Tired or Little Energy",
                "PHQ-9",
                "Several days",
                "1",
                1,
                "",
                10,
                "WEEK 16",
                "TREATMENT",
                "2014-09-03",
                116,
                "-P2W"
            ],
            [
                104,
                "CDISCPILOT01",
                "QS",
                "CDISC008",
                21,
                "PHQ0105",
                "PHQ01-Poor Appetite or Overeating",
                "PHQ-9",
                "Not at all",
                "0",
                0,
                "",
                10,
                "WEEK 16",
                "TREATMENT",
                "2014-09-03",
                116,
                "-P2W"
            ],
            [
                105,
                "CDISCPILOT01",
                "QS",
                "CDISC008",
                22,
                "PHQ0106",
                "PHQ01-Feeling Bad About Yourself",
                "PHQ-9",
                "Several days",
                "1",
                1,
                "",
                10,
                "WEEK 16",
                "TREATMENT",
                "2014-09-03",
                116,
                "-P2W"
            ],
            [
                106,
                "CDISCPILOT01",
                "QS",
                "CDISC008",
                23,
                "PHQ0107",
                "PHQ01-Trouble Concentrating on Things",
                "PHQ-9",
                "Not at all",
                "0",
                0,
                "",
                10,
                "WEEK 16",
                "TREATMENT",
                "2014-09-03",
                116,
                "-P2W"
            ],
            [
                107,
                "CDISCPILOT01",
                "QS",
                "CDISC008",
                24,
                "PHQ0108",
                "PHQ01-Moving Slowly or Fidgety/Restless",
                "PHQ-9",
                "More than half the days",
                "2",
                2,
                "",
                10,
                "WEEK 16",
                "TREATMENT",
                "2014-09-03",
                116,
                "-P2W"
            ],
            [
                108,
                "CDISCPILOT01",
                "QS",
                "CDISC008",
                25,
                "PHQ0109",
                "PHQ01-Thoughts You Be Better Off Dead",
                "PHQ-9",
                "Several days",
                "1",
                1,
                "",
                10,
                "WEEK 16",
                "TREATMENT",
                "2014-09-03",
                116,
                "-P2W"
            ],
            [
                109,
                "CDISCPILOT01",
                "QS",
                "CDISC008",
                26,
                "PHQ0110",
                "PHQ01-Difficult to Work/Take Care Things",
                "PHQ-9",
                "Not difficult at all",
                "Not difficult at all",
                null,
                "",
                10,
                "WEEK 16",
                "TREATMENT",
                "2014-09-03",
                116,
                "-P2W"
            ],
            [
                110,
                "CDISCPILOT01",
                "QS",
                "CDISC008",
                27,
                "PHQ0111",
                "PHQ01-Total Score",
                "PHQ-9",
                "9",
                "9",
                9,
                "",
                10,
                "WEEK 16",
                "TREATMENT",
                "2014-09-03",
                116,
                "-P2W"
            ],
            [
                111,
                "CDISCPILOT01",
                "QS",
                "CDISC009",
                1,
                "PHQ0101",
                "PHQ01-Little Interest/Pleasure in Things",
                "PHQ-9",
                "Several days",
                "1",
                1,
                "Y",
                3,
                "BASELINE",
                "SCREENING",
                "2012-10-22",
                1,
                "-P2W"
            ],
            [
                112,
                "CDISCPILOT01",
                "QS",
                "CDISC009",
                2,
                "PHQ0102",
                "PHQ01-Feeling Down Depressed or Hopeless",
                "PHQ-9",
                "Several days",
                "1",
                1,
                "Y",
                3,
                "BASELINE",
                "SCREENING",
                "2012-10-22",
                1,
                "-P2W"
            ],
            [
                113,
                "CDISCPILOT01",
                "QS",
                "CDISC009",
                3,
                "PHQ0103",
                "PHQ01-Trouble Falling or Staying Asleep",
                "PHQ-9",
                "Several days",
                "1",
                1,
                "Y",
                3,
                "BASELINE",
                "SCREENING",
                "2012-10-22",
                1,
                "-P2W"
            ],
            [
                114,
                "CDISCPILOT01",
                "QS",
                "CDISC009",
                4,
                "PHQ0104",
                "PHQ01-Feeling Tired or Little Energy",
                "PHQ-9",
                "Not at all",
                "0",
                0,
                "Y",
                3,
                "BASELINE",
                "SCREENING",
                "2012-10-22",
                1,
                "-P2W"
            ],
            [
                115,
                "CDISCPILOT01",
                "QS",
                "CDISC009",
                5,
                "PHQ0105",
                "PHQ01-Poor Appetite or Overeating",
                "PHQ-9",
                "More than half the days",
                "2",
                2,
                "Y",
                3,
                "BASELINE",
                "SCREENING",
                "2012-10-22",
                1,
                "-P2W"
            ],
            [
                116,
                "CDISCPILOT01",
                "QS",
                "CDISC009",
                6,
                "PHQ0106",
                "PHQ01-Feeling Bad About Yourself",
                "PHQ-9",
                "More than half the days",
                "2",
                2,
                "Y",
                3,
                "BASELINE",
                "SCREENING",
                "2012-10-22",
                1,
                "-P2W"
            ],
            [
                117,
                "CDISCPILOT01",
                "QS",
                "CDISC009",
                7,
                "PHQ0107",
                "PHQ01-Trouble Concentrating on Things",
                "PHQ-9",
                "Several days",
                "1",
                1,
                "Y",
                3,
                "BASELINE",
                "SCREENING",
                "2012-10-22",
                1,
                "-P2W"
            ],
            [
                118,
                "CDISCPILOT01",
                "QS",
                "CDISC009",
                8,
                "PHQ0108",
                "PHQ01-Moving Slowly or Fidgety/Restless",
                "PHQ-9",
                "Several days",
                "1",
                1,
                "Y",
                3,
                "BASELINE",
                "SCREENING",
                "2012-10-22",
                1,
                "-P2W"
            ],
            [
                119,
                "CDISCPILOT01",
                "QS",
                "CDISC009",
                9,
                "PHQ0109",
                "PHQ01-Thoughts You Be Better Off Dead",
                "PHQ-9",
                "Not at all",
                "0",
                0,
                "Y",
                3,
                "BASELINE",
                "SCREENING",
                "2012-10-22",
                1,
                "-P2W"
            ],
            [
                120,
                "CDISCPILOT01",
                "QS",
                "CDISC009",
                10,
                "PHQ0110",
                "PHQ01-Difficult to Work/Take Care Things",
                "PHQ-9",
                "Somewhat difficult",
                "Somewhat difficult",
                null,
                "Y",
                3,
                "BASELINE",
                "SCREENING",
                "2012-10-22",
                1,
                "-P2W"
            ],
            [
                121,
                "CDISCPILOT01",
                "QS",
                "CDISC009",
                11,
                "PHQ0111",
                "PHQ01-Total Score",
                "PHQ-9",
                "9",
                "9",
                9,
                "Y",
                3,
                "BASELINE",
                "SCREENING",
                "2012-10-22",
                1,
                "-P2W"
            ],
            [
                122,
                "CDISCPILOT01",
                "QS",
                "CDISC009",
                17,
                "PHQ0101",
                "PHQ01-Little Interest/Pleasure in Things",
                "PHQ-9",
                "Several days",
                "1",
                1,
                "",
                10,
                "WEEK 16",
                "TREATMENT",
                "2013-02-16",
                118,
                "-P2W"
            ],
            [
                123,
                "CDISCPILOT01",
                "QS",
                "CDISC009",
                18,
                "PHQ0102",
                "PHQ01-Feeling Down Depressed or Hopeless",
                "PHQ-9",
                "Several days",
                "1",
                1,
                "",
                10,
                "WEEK 16",
                "TREATMENT",
                "2013-02-16",
                118,
                "-P2W"
            ],
            [
                124,
                "CDISCPILOT01",
                "QS",
                "CDISC009",
                19,
                "PHQ0103",
                "PHQ01-Trouble Falling or Staying Asleep",
                "PHQ-9",
                "Several days",
                "1",
                1,
                "",
                10,
                "WEEK 16",
                "TREATMENT",
                "2013-02-16",
                118,
                "-P2W"
            ],
            [
                125,
                "CDISCPILOT01",
                "QS",
                "CDISC009",
                20,
                "PHQ0104",
                "PHQ01-Feeling Tired or Little Energy",
                "PHQ-9",
                "Not at all",
                "0",
                0,
                "",
                10,
                "WEEK 16",
                "TREATMENT",
                "2013-02-16",
                118,
                "-P2W"
            ],
            [
                126,
                "CDISCPILOT01",
                "QS",
                "CDISC009",
                21,
                "PHQ0105",
                "PHQ01-Poor Appetite or Overeating",
                "PHQ-9",
                "Several days",
                "1",
                1,
                "",
                10,
                "WEEK 16",
                "TREATMENT",
                "2013-02-16",
                118,
                "-P2W"
            ],
            [
                127,
                "CDISCPILOT01",
                "QS",
                "CDISC009",
                22,
                "PHQ0106",
                "PHQ01-Feeling Bad About Yourself",
                "PHQ-9",
                "More than half the days",
                "2",
                2,
                "",
                10,
                "WEEK 16",
                "TREATMENT",
                "2013-02-16",
                118,
                "-P2W"
            ],
            [
                128,
                "CDISCPILOT01",
                "QS",
                "CDISC009",
                23,
                "PHQ0107",
                "PHQ01-Trouble Concentrating on Things",
                "PHQ-9",
                "Several days",
                "1",
                1,
                "",
                10,
                "WEEK 16",
                "TREATMENT",
                "2013-02-16",
                118,
                "-P2W"
            ],
            [
                129,
                "CDISCPILOT01",
                "QS",
                "CDISC009",
                24,
                "PHQ0108",
                "PHQ01-Moving Slowly or Fidgety/Restless",
                "PHQ-9",
                "Several days",
                "1",
                1,
                "",
                10,
                "WEEK 16",
                "TREATMENT",
                "2013-02-16",
                118,
                "-P2W"
            ],
            [
                130,
                "CDISCPILOT01",
                "QS",
                "CDISC009",
                25,
                "PHQ0109",
                "PHQ01-Thoughts You Be Better Off Dead",
                "PHQ-9",
                "Not at all",
                "0",
                0,
                "",
                10,
                "WEEK 16",
                "TREATMENT",
                "2013-02-16",
                118,
                "-P2W"
            ],
            [
                131,
                "CDISCPILOT01",
                "QS",
                "CDISC009",
                26,
                "PHQ0110",
                "PHQ01-Difficult to Work/Take Care Things",
                "PHQ-9",
                "Somewhat difficult",
                "Somewhat difficult",
                null,
                "",
                10,
                "WEEK 16",
                "TREATMENT",
                "2013-02-16",
                118,
                "-P2W"
            ],
            [
                132,
                "CDISCPILOT01",
                "QS",
                "CDISC009",
                27,
                "PHQ0111",
                "PHQ01-Total Score",
                "PHQ-9",
                "8",
                "8",
                8,
                "",
                10,
                "WEEK 16",
                "TREATMENT",
                "2013-02-16",
                118,
                "-P2W"
            ],
            [
                133,
                "CDISCPILOT01",
                "QS",
                "CDISC009",
                33,
                "PHQ0101",
                "PHQ01-Little Interest/Pleasure in Things",
                "PHQ-9",
                "Several days",
                "1",
                1,
                "",
                12,
                "WEEK 24",
                "TREATMENT",
                "2013-04-10",
                171,
                "-P2W"
            ],
            [
                134,
                "CDISCPILOT01",
                "QS",
                "CDISC009",
                34,
                "PHQ0102",
                "PHQ01-Feeling Down Depressed or Hopeless",
                "PHQ-9",
                "Several days",
                "1",
                1,
                "",
                12,
                "WEEK 24",
                "TREATMENT",
                "2013-04-10",
                171,
                "-P2W"
            ],
            [
                135,
                "CDISCPILOT01",
                "QS",
                "CDISC009",
                35,
                "PHQ0103",
                "PHQ01-Trouble Falling or Staying Asleep",
                "PHQ-9",
                "Several days",
                "1",
                1,
                "",
                12,
                "WEEK 24",
                "TREATMENT",
                "2013-04-10",
                171,
                "-P2W"
            ],
            [
                136,
                "CDISCPILOT01",
                "QS",
                "CDISC009",
                36,
                "PHQ0104",
                "PHQ01-Feeling Tired or Little Energy",
                "PHQ-9",
                "Not at all",
                "0",
                0,
                "",
                12,
                "WEEK 24",
                "TREATMENT",
                "2013-04-10",
                171,
                "-P2W"
            ],
            [
                137,
                "CDISCPILOT01",
                "QS",
                "CDISC009",
                37,
                "PHQ0105",
                "PHQ01-Poor Appetite or Overeating",
                "PHQ-9",
                "Several days",
                "1",
                1,
                "",
                12,
                "WEEK 24",
                "TREATMENT",
                "2013-04-10",
                171,
                "-P2W"
            ],
            [
                138,
                "CDISCPILOT01",
                "QS",
                "CDISC009",
                38,
                "PHQ0106",
                "PHQ01-Feeling Bad About Yourself",
                "PHQ-9",
                "More than half the days",
                "2",
                2,
                "",
                12,
                "WEEK 24",
                "TREATMENT",
                "2013-04-10",
                171,
                "-P2W"
            ],
            [
                139,
                "CDISCPILOT01",
                "QS",
                "CDISC009",
                39,
                "PHQ0107",
                "PHQ01-Trouble Concentrating on Things",
                "PHQ-9",
                "Several days",
                "1",
                1,
                "",
                12,
                "WEEK 24",
                "TREATMENT",
                "2013-04-10",
                171,
                "-P2W"
            ],
            [
                140,
                "CDISCPILOT01",
                "QS",
                "CDISC009",
                40,
                "PHQ0108",
                "PHQ01-Moving Slowly or Fidgety/Restless",
                "PHQ-9",
                "Several days",
                "1",
                1,
                "",
                12,
                "WEEK 24",
                "TREATMENT",
                "2013-04-10",
                171,
                "-P2W"
            ],
            [
                141,
                "CDISCPILOT01",
                "QS",
                "CDISC009",
                41,
                "PHQ0109",
                "PHQ01-Thoughts You Be Better Off Dead",
                "PHQ-9",
                "Not at all",
                "0",
                0,
                "",
                12,
                "WEEK 24",
                "TREATMENT",
                "2013-04-10",
                171,
                "-P2W"
            ],
            [
                142,
                "CDISCPILOT01",
                "QS",
                "CDISC009",
                42,
                "PHQ0110",
                "PHQ01-Difficult to Work/Take Care Things",
                "PHQ-9",
                "Not difficult at all",
                "Not difficult at all",
                null,
                "",
                12,
                "WEEK 24",
                "TREATMENT",
                "2013-04-10",
                171,
                "-P2W"
            ],
            [
                143,
                "CDISCPILOT01",
                "QS",
                "CDISC009",
                43,
                "PHQ0111",
                "PHQ01-Total Score",
                "PHQ-9",
                "8",
                "8",
                8,
                "",
                12,
                "WEEK 24",
                "TREATMENT",
                "2013-04-10",
                171,
                "-P2W"
            ],
            [
                144,
                "CDISCPILOT01",
                "QS",
                "CDISC011",
                1,
                "PHQ0101",
                "PHQ01-Little Interest/Pleasure in Things",
                "PHQ-9",
                "More than half the days",
                "2",
                2,
                "",
                3,
                "BASELINE",
                "SCREENING",
                "2012-12-07",
                1,
                "-P2W"
            ],
            [
                145,
                "CDISCPILOT01",
                "QS",
                "CDISC011",
                2,
                "PHQ0102",
                "PHQ01-Feeling Down Depressed or Hopeless",
                "PHQ-9",
                "More than half the days",
                "2",
                2,
                "",
                3,
                "BASELINE",
                "SCREENING",
                "2012-12-07",
                1,
                "-P2W"
            ],
            [
                146,
                "CDISCPILOT01",
                "QS",
                "CDISC011",
                3,
                "PHQ0103",
                "PHQ01-Trouble Falling or Staying Asleep",
                "PHQ-9",
                "Nearly every day",
                "3",
                3,
                "",
                3,
                "BASELINE",
                "SCREENING",
                "2012-12-07",
                1,
                "-P2W"
            ],
            [
                147,
                "CDISCPILOT01",
                "QS",
                "CDISC011",
                4,
                "PHQ0104",
                "PHQ01-Feeling Tired or Little Energy",
                "PHQ-9",
                "More than half the days",
                "2",
                2,
                "",
                3,
                "BASELINE",
                "SCREENING",
                "2012-12-07",
                1,
                "-P2W"
            ],
            [
                148,
                "CDISCPILOT01",
                "QS",
                "CDISC011",
                5,
                "PHQ0105",
                "PHQ01-Poor Appetite or Overeating",
                "PHQ-9",
                "More than half the days",
                "2",
                2,
                "",
                3,
                "BASELINE",
                "SCREENING",
                "2012-12-07",
                1,
                "-P2W"
            ],
            [
                149,
                "CDISCPILOT01",
                "QS",
                "CDISC011",
                6,
                "PHQ0106",
                "PHQ01-Feeling Bad About Yourself",
                "PHQ-9",
                "More than half the days",
                "2",
                2,
                "",
                3,
                "BASELINE",
                "SCREENING",
                "2012-12-07",
                1,
                "-P2W"
            ],
            [
                150,
                "CDISCPILOT01",
                "QS",
                "CDISC011",
                7,
                "PHQ0107",
                "PHQ01-Trouble Concentrating on Things",
                "PHQ-9",
                "Several days",
                "1",
                1,
                "",
                3,
                "BASELINE",
                "SCREENING",
                "2012-12-07",
                1,
                "-P2W"
            ],
            [
                151,
                "CDISCPILOT01",
                "QS",
                "CDISC011",
                8,
                "PHQ0108",
                "PHQ01-Moving Slowly or Fidgety/Restless",
                "PHQ-9",
                "Nearly every day",
                "3",
                3,
                "",
                3,
                "BASELINE",
                "SCREENING",
                "2012-12-07",
                1,
                "-P2W"
            ],
            [
                152,
                "CDISCPILOT01",
                "QS",
                "CDISC011",
                9,
                "PHQ0109",
                "PHQ01-Thoughts You Be Better Off Dead",
                "PHQ-9",
                "More than half the days",
                "2",
                2,
                "",
                3,
                "BASELINE",
                "SCREENING",
                "2012-12-07",
                1,
                "-P2W"
            ],
            [
                153,
                "CDISCPILOT01",
                "QS",
                "CDISC011",
                10,
                "PHQ0110",
                "PHQ01-Difficult to Work/Take Care Things",
                "PHQ-9",
                "Somewhat difficult",
                "Somewhat difficult",
                null,
                "",
                3,
                "BASELINE",
                "SCREENING",
                "2012-12-07",
                1,
                "-P2W"
            ],
            [
                154,
                "CDISCPILOT01",
                "QS",
                "CDISC011",
                11,
                "PHQ0111",
                "PHQ01-Total Score",
                "PHQ-9",
                "19",
                "19",
                19,
                "",
                3,
                "BASELINE",
                "SCREENING",
                "2012-12-07",
                1,
                "-P2W"
            ],
            [
                155,
                "CDISCPILOT01",
                "QS",
                "CDISC011",
                17,
                "PHQ0101",
                "PHQ01-Little Interest/Pleasure in Things",
                "PHQ-9",
                "More than half the days",
                "2",
                2,
                "",
                10,
                "WEEK 16",
                "TREATMENT",
                "2013-03-27",
                111,
                "-P2W"
            ],
            [
                156,
                "CDISCPILOT01",
                "QS",
                "CDISC011",
                18,
                "PHQ0102",
                "PHQ01-Feeling Down Depressed or Hopeless",
                "PHQ-9",
                "More than half the days",
                "2",
                2,
                "",
                10,
                "WEEK 16",
                "TREATMENT",
                "2013-03-27",
                111,
                "-P2W"
            ],
            [
                157,
                "CDISCPILOT01",
                "QS",
                "CDISC011",
                19,
                "PHQ0103",
                "PHQ01-Trouble Falling or Staying Asleep",
                "PHQ-9",
                "Nearly every day",
                "3",
                3,
                "",
                10,
                "WEEK 16",
                "TREATMENT",
                "2013-03-27",
                111,
                "-P2W"
            ],
            [
                158,
                "CDISCPILOT01",
                "QS",
                "CDISC011",
                20,
                "PHQ0104",
                "PHQ01-Feeling Tired or Little Energy",
                "PHQ-9",
                "More than half the days",
                "2",
                2,
                "",
                10,
                "WEEK 16",
                "TREATMENT",
                "2013-03-27",
                111,
                "-P2W"
            ],
            [
                159,
                "CDISCPILOT01",
                "QS",
                "CDISC011",
                21,
                "PHQ0105",
                "PHQ01-Poor Appetite or Overeating",
                "PHQ-9",
                "More than half the days",
                "2",
                2,
                "",
                10,
                "WEEK 16",
                "TREATMENT",
                "2013-03-27",
                111,
                "-P2W"
            ],
            [
                160,
                "CDISCPILOT01",
                "QS",
                "CDISC011",
                22,
                "PHQ0106",
                "PHQ01-Feeling Bad About Yourself",
                "PHQ-9",
                "More than half the days",
                "2",
                2,
                "",
                10,
                "WEEK 16",
                "TREATMENT",
                "2013-03-27",
                111,
                "-P2W"
            ],
            [
                161,
                "CDISCPILOT01",
                "QS",
                "CDISC011",
                23,
                "PHQ0107",
                "PHQ01-Trouble Concentrating on Things",
                "PHQ-9",
                "Several days",
                "1",
                1,
                "",
                10,
                "WEEK 16",
                "TREATMENT",
                "2013-03-27",
                111,
                "-P2W"
            ],
            [
                162,
                "CDISCPILOT01",
                "QS",
                "CDISC011",
                24,
                "PHQ0108",
                "PHQ01-Moving Slowly or Fidgety/Restless",
                "PHQ-9",
                "Nearly every day",
                "3",
                3,
                "",
                10,
                "WEEK 16",
                "TREATMENT",
                "2013-03-27",
                111,
                "-P2W"
            ],
            [
                163,
                "CDISCPILOT01",
                "QS",
                "CDISC011",
                25,
                "PHQ0109",
                "PHQ01-Thoughts You Be Better Off Dead",
                "PHQ-9",
                "More than half the days",
                "2",
                2,
                "",
                10,
                "WEEK 16",
                "TREATMENT",
                "2013-03-27",
                111,
                "-P2W"
            ],
            [
                164,
                "CDISCPILOT01",
                "QS",
                "CDISC011",
                26,
                "PHQ0110",
                "PHQ01-Difficult to Work/Take Care Things",
                "PHQ-9",
                "Not difficult at all",
                "Not difficult at all",
                null,
                "",
                10,
                "WEEK 16",
                "TREATMENT",
                "2013-03-27",
                111,
                "-P2W"
            ],
            [
                165,
                "CDISCPILOT01",
                "QS",
                "CDISC011",
                27,
                "PHQ0111",
                "PHQ01-Total Score",
                "PHQ-9",
                "19",
                "19",
                19,
                "",
                10,
                "WEEK 16",
                "TREATMENT",
                "2013-03-27",
                111,
                "-P2W"
            ],
            [
                166,
                "CDISCPILOT01",
                "QS",
                "CDISC011",
                28,
                "PHQ0101",
                "PHQ01-Little Interest/Pleasure in Things",
                "PHQ-9",
                "More than half the days",
                "2",
                2,
                "",
                12,
                "WEEK 24",
                "TREATMENT",
                "2013-05-22",
                167,
                "-P2W"
            ],
            [
                167,
                "CDISCPILOT01",
                "QS",
                "CDISC011",
                29,
                "PHQ0102",
                "PHQ01-Feeling Down Depressed or Hopeless",
                "PHQ-9",
                "More than half the days",
                "2",
                2,
                "",
                12,
                "WEEK 24",
                "TREATMENT",
                "2013-05-22",
                167,
                "-P2W"
            ],
            [
                168,
                "CDISCPILOT01",
                "QS",
                "CDISC011",
                30,
                "PHQ0103",
                "PHQ01-Trouble Falling or Staying Asleep",
                "PHQ-9",
                "Nearly every day",
                "3",
                3,
                "",
                12,
                "WEEK 24",
                "TREATMENT",
                "2013-05-22",
                167,
                "-P2W"
            ],
            [
                169,
                "CDISCPILOT01",
                "QS",
                "CDISC011",
                31,
                "PHQ0104",
                "PHQ01-Feeling Tired or Little Energy",
                "PHQ-9",
                "More than half the days",
                "2",
                2,
                "",
                12,
                "WEEK 24",
                "TREATMENT",
                "2013-05-22",
                167,
                "-P2W"
            ],
            [
                170,
                "CDISCPILOT01",
                "QS",
                "CDISC011",
                32,
                "PHQ0105",
                "PHQ01-Poor Appetite or Overeating",
                "PHQ-9",
                "More than half the days",
                "2",
                2,
                "",
                12,
                "WEEK 24",
                "TREATMENT",
                "2013-05-22",
                167,
                "-P2W"
            ],
            [
                171,
                "CDISCPILOT01",
                "QS",
                "CDISC011",
                33,
                "PHQ0106",
                "PHQ01-Feeling Bad About Yourself",
                "PHQ-9",
                "More than half the days",
                "2",
                2,
                "",
                12,
                "WEEK 24",
                "TREATMENT",
                "2013-05-22",
                167,
                "-P2W"
            ],
            [
                172,
                "CDISCPILOT01",
                "QS",
                "CDISC011",
                34,
                "PHQ0107",
                "PHQ01-Trouble Concentrating on Things",
                "PHQ-9",
                "More than half the days",
                "2",
                2,
                "",
                12,
                "WEEK 24",
                "TREATMENT",
                "2013-05-22",
                167,
                "-P2W"
            ],
            [
                173,
                "CDISCPILOT01",
                "QS",
                "CDISC011",
                35,
                "PHQ0108",
                "PHQ01-Moving Slowly or Fidgety/Restless",
                "PHQ-9",
                "Nearly every day",
                "3",
                3,
                "",
                12,
                "WEEK 24",
                "TREATMENT",
                "2013-05-22",
                167,
                "-P2W"
            ],
            [
                174,
                "CDISCPILOT01",
                "QS",
                "CDISC011",
                36,
                "PHQ0109",
                "PHQ01-Thoughts You Be Better Off Dead",
                "PHQ-9",
                "More than half the days",
                "2",
                2,
                "",
                12,
                "WEEK 24",
                "TREATMENT",
                "2013-05-22",
                167,
                "-P2W"
            ],
            [
                175,
                "CDISCPILOT01",
                "QS",
                "CDISC011",
                37,
                "PHQ0110",
                "PHQ01-Difficult to Work/Take Care Things",
                "PHQ-9",
                "Somewhat difficult",
                "Somewhat difficult",
                null,
                "",
                12,
                "WEEK 24",
                "TREATMENT",
                "2013-05-22",
                167,
                "-P2W"
            ],
            [
                176,
                "CDISCPILOT01",
                "QS",
                "CDISC011",
                38,
                "PHQ0111",
                "PHQ01-Total Score",
                "PHQ-9",
                "20",
                "20",
                20,
                "",
                12,
                "WEEK 24",
                "TREATMENT",
                "2013-05-22",
                167,
                "-P2W"
            ],
            [
                177,
                "CDISCPILOT01",
                "QS",
                "CDISC012",
                1,
                "PHQ0101",
                "PHQ01-Little Interest/Pleasure in Things",
                "PHQ-9",
                "Several days",
                "1",
                1,
                "Y",
                3,
                "BASELINE",
                "SCREENING",
                "2013-09-03",
                1,
                "-P2W"
            ],
            [
                178,
                "CDISCPILOT01",
                "QS",
                "CDISC012",
                2,
                "PHQ0102",
                "PHQ01-Feeling Down Depressed or Hopeless",
                "PHQ-9",
                "Several days",
                "1",
                1,
                "Y",
                3,
                "BASELINE",
                "SCREENING",
                "2013-09-03",
                1,
                "-P2W"
            ],
            [
                179,
                "CDISCPILOT01",
                "QS",
                "CDISC012",
                3,
                "PHQ0103",
                "PHQ01-Trouble Falling or Staying Asleep",
                "PHQ-9",
                "More than half the days",
                "2",
                2,
                "Y",
                3,
                "BASELINE",
                "SCREENING",
                "2013-09-03",
                1,
                "-P2W"
            ],
            [
                180,
                "CDISCPILOT01",
                "QS",
                "CDISC012",
                4,
                "PHQ0104",
                "PHQ01-Feeling Tired or Little Energy",
                "PHQ-9",
                "Several days",
                "1",
                1,
                "Y",
                3,
                "BASELINE",
                "SCREENING",
                "2013-09-03",
                1,
                "-P2W"
            ],
            [
                181,
                "CDISCPILOT01",
                "QS",
                "CDISC012",
                5,
                "PHQ0105",
                "PHQ01-Poor Appetite or Overeating",
                "PHQ-9",
                "Several days",
                "1",
                1,
                "Y",
                3,
                "BASELINE",
                "SCREENING",
                "2013-09-03",
                1,
                "-P2W"
            ],
            [
                182,
                "CDISCPILOT01",
                "QS",
                "CDISC012",
                6,
                "PHQ0106",
                "PHQ01-Feeling Bad About Yourself",
                "PHQ-9",
                "Several days",
                "1",
                1,
                "Y",
                3,
                "BASELINE",
                "SCREENING",
                "2013-09-03",
                1,
                "-P2W"
            ],
            [
                183,
                "CDISCPILOT01",
                "QS",
                "CDISC012",
                7,
                "PHQ0107",
                "PHQ01-Trouble Concentrating on Things",
                "PHQ-9",
                "Several days",
                "1",
                1,
                "Y",
                3,
                "BASELINE",
                "SCREENING",
                "2013-09-03",
                1,
                "-P2W"
            ],
            [
                184,
                "CDISCPILOT01",
                "QS",
                "CDISC012",
                8,
                "PHQ0108",
                "PHQ01-Moving Slowly or Fidgety/Restless",
                "PHQ-9",
                "Not at all",
                "0",
                0,
                "Y",
                3,
                "BASELINE",
                "SCREENING",
                "2013-09-03",
                1,
                "-P2W"
            ],
            [
                185,
                "CDISCPILOT01",
                "QS",
                "CDISC012",
                9,
                "PHQ0109",
                "PHQ01-Thoughts You Be Better Off Dead",
                "PHQ-9",
                "Not at all",
                "0",
                0,
                "Y",
                3,
                "BASELINE",
                "SCREENING",
                "2013-09-03",
                1,
                "-P2W"
            ],
            [
                186,
                "CDISCPILOT01",
                "QS",
                "CDISC012",
                10,
                "PHQ0110",
                "PHQ01-Difficult to Work/Take Care Things",
                "PHQ-9",
                "Not difficult at all",
                "Not difficult at all",
                null,
                "Y",
                3,
                "BASELINE",
                "SCREENING",
                "2013-09-03",
                1,
                "-P2W"
            ],
            [
                187,
                "CDISCPILOT01",
                "QS",
                "CDISC012",
                11,
                "PHQ0111",
                "PHQ01-Total Score",
                "PHQ-9",
                "8",
                "8",
                8,
                "Y",
                3,
                "BASELINE",
                "SCREENING",
                "2013-09-03",
                1,
                "-P2W"
            ],
            [
                188,
                "CDISCPILOT01",
                "QS",
                "CDISC012",
                17,
                "PHQ0101",
                "PHQ01-Little Interest/Pleasure in Things",
                "PHQ-9",
                "Several days",
                "1",
                1,
                "",
                10,
                "WEEK 16",
                "TREATMENT",
                "2014-01-12",
                132,
                "-P2W"
            ],
            [
                189,
                "CDISCPILOT01",
                "QS",
                "CDISC012",
                18,
                "PHQ0102",
                "PHQ01-Feeling Down Depressed or Hopeless",
                "PHQ-9",
                "Several days",
                "1",
                1,
                "",
                10,
                "WEEK 16",
                "TREATMENT",
                "2014-01-12",
                132,
                "-P2W"
            ],
            [
                190,
                "CDISCPILOT01",
                "QS",
                "CDISC012",
                19,
                "PHQ0103",
                "PHQ01-Trouble Falling or Staying Asleep",
                "PHQ-9",
                "Several days",
                "1",
                1,
                "",
                10,
                "WEEK 16",
                "TREATMENT",
                "2014-01-12",
                132,
                "-P2W"
            ],
            [
                191,
                "CDISCPILOT01",
                "QS",
                "CDISC012",
                20,
                "PHQ0104",
                "PHQ01-Feeling Tired or Little Energy",
                "PHQ-9",
                "More than half the days",
                "2",
                2,
                "",
                10,
                "WEEK 16",
                "TREATMENT",
                "2014-01-12",
                132,
                "-P2W"
            ],
            [
                192,
                "CDISCPILOT01",
                "QS",
                "CDISC012",
                21,
                "PHQ0105",
                "PHQ01-Poor Appetite or Overeating",
                "PHQ-9",
                "More than half the days",
                "2",
                2,
                "",
                10,
                "WEEK 16",
                "TREATMENT",
                "2014-01-12",
                132,
                "-P2W"
            ],
            [
                193,
                "CDISCPILOT01",
                "QS",
                "CDISC012",
                22,
                "PHQ0106",
                "PHQ01-Feeling Bad About Yourself",
                "PHQ-9",
                "Several days",
                "1",
                1,
                "",
                10,
                "WEEK 16",
                "TREATMENT",
                "2014-01-12",
                132,
                "-P2W"
            ],
            [
                194,
                "CDISCPILOT01",
                "QS",
                "CDISC012",
                23,
                "PHQ0107",
                "PHQ01-Trouble Concentrating on Things",
                "PHQ-9",
                "Several days",
                "1",
                1,
                "",
                10,
                "WEEK 16",
                "TREATMENT",
                "2014-01-12",
                132,
                "-P2W"
            ],
            [
                195,
                "CDISCPILOT01",
                "QS",
                "CDISC012",
                24,
                "PHQ0108",
                "PHQ01-Moving Slowly or Fidgety/Restless",
                "PHQ-9",
                "Not at all",
                "0",
                0,
                "",
                10,
                "WEEK 16",
                "TREATMENT",
                "2014-01-12",
                132,
                "-P2W"
            ],
            [
                196,
                "CDISCPILOT01",
                "QS",
                "CDISC012",
                25,
                "PHQ0109",
                "PHQ01-Thoughts You Be Better Off Dead",
                "PHQ-9",
                "Not at all",
                "0",
                0,
                "",
                10,
                "WEEK 16",
                "TREATMENT",
                "2014-01-12",
                132,
                "-P2W"
            ],
            [
                197,
                "CDISCPILOT01",
                "QS",
                "CDISC012",
                26,
                "PHQ0110",
                "PHQ01-Difficult to Work/Take Care Things",
                "PHQ-9",
                "Not difficult at all",
                "Not difficult at all",
                null,
                "",
                10,
                "WEEK 16",
                "TREATMENT",
                "2014-01-12",
                132,
                "-P2W"
            ],
            [
                198,
                "CDISCPILOT01",
                "QS",
                "CDISC012",
                27,
                "PHQ0111",
                "PHQ01-Total Score",
                "PHQ-9",
                "9",
                "9",
                9,
                "",
                10,
                "WEEK 16",
                "TREATMENT",
                "2014-01-12",
                132,
                "-P2W"
            ],
            [
                199,
                "CDISCPILOT01",
                "QS",
                "CDISC012",
                29,
                "PHQ0101",
                "PHQ01-Little Interest/Pleasure in Things",
                "PHQ-9",
                "Several days",
                "1",
                1,
                "",
                11,
                "WEEK 20",
                "TREATMENT",
                "2014-01-28",
                148,
                "-P2W"
            ],
            [
                200,
                "CDISCPILOT01",
                "QS",
                "CDISC012",
                30,
                "PHQ0102",
                "PHQ01-Feeling Down Depressed or Hopeless",
                "PHQ-9",
                "More than half the days",
                "2",
                2,
                "",
                11,
                "WEEK 20",
                "TREATMENT",
                "2014-01-28",
                148,
                "-P2W"
            ],
            [
                201,
                "CDISCPILOT01",
                "QS",
                "CDISC012",
                31,
                "PHQ0103",
                "PHQ01-Trouble Falling or Staying Asleep",
                "PHQ-9",
                "Several days",
                "1",
                1,
                "",
                11,
                "WEEK 20",
                "TREATMENT",
                "2014-01-28",
                148,
                "-P2W"
            ],
            [
                202,
                "CDISCPILOT01",
                "QS",
                "CDISC012",
                32,
                "PHQ0104",
                "PHQ01-Feeling Tired or Little Energy",
                "PHQ-9",
                "More than half the days",
                "2",
                2,
                "",
                11,
                "WEEK 20",
                "TREATMENT",
                "2014-01-28",
                148,
                "-P2W"
            ],
            [
                203,
                "CDISCPILOT01",
                "QS",
                "CDISC012",
                33,
                "PHQ0105",
                "PHQ01-Poor Appetite or Overeating",
                "PHQ-9",
                "More than half the days",
                "2",
                2,
                "",
                11,
                "WEEK 20",
                "TREATMENT",
                "2014-01-28",
                148,
                "-P2W"
            ],
            [
                204,
                "CDISCPILOT01",
                "QS",
                "CDISC012",
                34,
                "PHQ0106",
                "PHQ01-Feeling Bad About Yourself",
                "PHQ-9",
                "Several days",
                "1",
                1,
                "",
                11,
                "WEEK 20",
                "TREATMENT",
                "2014-01-28",
                148,
                "-P2W"
            ],
            [
                205,
                "CDISCPILOT01",
                "QS",
                "CDISC012",
                35,
                "PHQ0107",
                "PHQ01-Trouble Concentrating on Things",
                "PHQ-9",
                "Several days",
                "1",
                1,
                "",
                11,
                "WEEK 20",
                "TREATMENT",
                "2014-01-28",
                148,
                "-P2W"
            ],
            [
                206,
                "CDISCPILOT01",
                "QS",
                "CDISC012",
                36,
                "PHQ0108",
                "PHQ01-Moving Slowly or Fidgety/Restless",
                "PHQ-9",
                "Several days",
                "1",
                1,
                "",
                11,
                "WEEK 20",
                "TREATMENT",
                "2014-01-28",
                148,
                "-P2W"
            ],
            [
                207,
                "CDISCPILOT01",
                "QS",
                "CDISC012",
                37,
                "PHQ0109",
                "PHQ01-Thoughts You Be Better Off Dead",
                "PHQ-9",
                "Several days",
                "1",
                1,
                "",
                11,
                "WEEK 20",
                "TREATMENT",
                "2014-01-28",
                148,
                "-P2W"
            ],
            [
                208,
                "CDISCPILOT01",
                "QS",
                "CDISC012",
                38,
                "PHQ0110",
                "PHQ01-Difficult to Work/Take Care Things",
                "PHQ-9",
                "Somewhat difficult",
                "Somewhat difficult",
                null,
                "",
                11,
                "WEEK 20",
                "TREATMENT",
                "2014-01-28",
                148,
                "-P2W"
            ],
            [
                209,
                "CDISCPILOT01",
                "QS",
                "CDISC012",
                39,
                "PHQ0111",
                "PHQ01-Total Score",
                "PHQ-9",
                "12",
                "12",
                12,
                "",
                11,
                "WEEK 20",
                "TREATMENT",
                "2014-01-28",
                148,
                "-P2W"
            ],
            [
                210,
                "CDISCPILOT01",
                "QS",
                "CDISC014",
                1,
                "PHQ0101",
                "PHQ01-Little Interest/Pleasure in Things",
                "PHQ-9",
                "Not at all",
                "0",
                0,
                "Y",
                3,
                "BASELINE",
                "SCREENING",
                "2013-04-03",
                1,
                "-P2W"
            ],
            [
                211,
                "CDISCPILOT01",
                "QS",
                "CDISC014",
                2,
                "PHQ0102",
                "PHQ01-Feeling Down Depressed or Hopeless",
                "PHQ-9",
                "Not at all",
                "0",
                0,
                "Y",
                3,
                "BASELINE",
                "SCREENING",
                "2013-04-03",
                1,
                "-P2W"
            ],
            [
                212,
                "CDISCPILOT01",
                "QS",
                "CDISC014",
                3,
                "PHQ0103",
                "PHQ01-Trouble Falling or Staying Asleep",
                "PHQ-9",
                "Several days",
                "1",
                1,
                "Y",
                3,
                "BASELINE",
                "SCREENING",
                "2013-04-03",
                1,
                "-P2W"
            ],
            [
                213,
                "CDISCPILOT01",
                "QS",
                "CDISC014",
                4,
                "PHQ0104",
                "PHQ01-Feeling Tired or Little Energy",
                "PHQ-9",
                "Not at all",
                "0",
                0,
                "Y",
                3,
                "BASELINE",
                "SCREENING",
                "2013-04-03",
                1,
                "-P2W"
            ],
            [
                214,
                "CDISCPILOT01",
                "QS",
                "CDISC014",
                5,
                "PHQ0105",
                "PHQ01-Poor Appetite or Overeating",
                "PHQ-9",
                "Several days",
                "1",
                1,
                "Y",
                3,
                "BASELINE",
                "SCREENING",
                "2013-04-03",
                1,
                "-P2W"
            ],
            [
                215,
                "CDISCPILOT01",
                "QS",
                "CDISC014",
                6,
                "PHQ0106",
                "PHQ01-Feeling Bad About Yourself",
                "PHQ-9",
                "Not at all",
                "0",
                0,
                "Y",
                3,
                "BASELINE",
                "SCREENING",
                "2013-04-03",
                1,
                "-P2W"
            ],
            [
                216,
                "CDISCPILOT01",
                "QS",
                "CDISC014",
                7,
                "PHQ0107",
                "PHQ01-Trouble Concentrating on Things",
                "PHQ-9",
                "Not at all",
                "0",
                0,
                "Y",
                3,
                "BASELINE",
                "SCREENING",
                "2013-04-03",
                1,
                "-P2W"
            ],
            [
                217,
                "CDISCPILOT01",
                "QS",
                "CDISC014",
                8,
                "PHQ0108",
                "PHQ01-Moving Slowly or Fidgety/Restless",
                "PHQ-9",
                "Not at all",
                "0",
                0,
                "Y",
                3,
                "BASELINE",
                "SCREENING",
                "2013-04-03",
                1,
                "-P2W"
            ],
            [
                218,
                "CDISCPILOT01",
                "QS",
                "CDISC014",
                9,
                "PHQ0109",
                "PHQ01-Thoughts You Be Better Off Dead",
                "PHQ-9",
                "Not at all",
                "0",
                0,
                "Y",
                3,
                "BASELINE",
                "SCREENING",
                "2013-04-03",
                1,
                "-P2W"
            ],
            [
                219,
                "CDISCPILOT01",
                "QS",
                "CDISC014",
                10,
                "PHQ0110",
                "PHQ01-Difficult to Work/Take Care Things",
                "PHQ-9",
                "Not at all",
                "Not at all",
                null,
                "Y",
                3,
                "BASELINE",
                "SCREENING",
                "2013-04-03",
                1,
                "-P2W"
            ],
            [
                220,
                "CDISCPILOT01",
                "QS",
                "CDISC014",
                11,
                "PHQ0111",
                "PHQ01-Total Score",
                "PHQ-9",
                "2",
                "2",
                2,
                "Y",
                3,
                "BASELINE",
                "SCREENING",
                "2013-04-03",
                1,
                "-P2W"
            ],
            [
                221,
                "CDISCPILOT01",
                "QS",
                "CDISC014",
                17,
                "PHQ0101",
                "PHQ01-Little Interest/Pleasure in Things",
                "PHQ-9",
                "Not at all",
                "0",
                0,
                "",
                201,
                "EARLY DISCONTINUATION RETRIEVAL",
                "TREATMENT",
                "2013-09-18",
                169,
                "-P2W"
            ],
            [
                222,
                "CDISCPILOT01",
                "QS",
                "CDISC014",
                18,
                "PHQ0102",
                "PHQ01-Feeling Down Depressed or Hopeless",
                "PHQ-9",
                "Not at all",
                "0",
                0,
                "",
                201,
                "EARLY DISCONTINUATION RETRIEVAL",
                "TREATMENT",
                "2013-09-18",
                169,
                "-P2W"
            ],
            [
                223,
                "CDISCPILOT01",
                "QS",
                "CDISC014",
                19,
                "PHQ0103",
                "PHQ01-Trouble Falling or Staying Asleep",
                "PHQ-9",
                "Not at all",
                "0",
                0,
                "",
                201,
                "EARLY DISCONTINUATION RETRIEVAL",
                "TREATMENT",
                "2013-09-18",
                169,
                "-P2W"
            ],
            [
                224,
                "CDISCPILOT01",
                "QS",
                "CDISC014",
                20,
                "PHQ0104",
                "PHQ01-Feeling Tired or Little Energy",
                "PHQ-9",
                "Not at all",
                "0",
                0,
                "",
                201,
                "EARLY DISCONTINUATION RETRIEVAL",
                "TREATMENT",
                "2013-09-18",
                169,
                "-P2W"
            ],
            [
                225,
                "CDISCPILOT01",
                "QS",
                "CDISC014",
                21,
                "PHQ0105",
                "PHQ01-Poor Appetite or Overeating",
                "PHQ-9",
                "Not at all",
                "0",
                0,
                "",
                201,
                "EARLY DISCONTINUATION RETRIEVAL",
                "TREATMENT",
                "2013-09-18",
                169,
                "-P2W"
            ],
            [
                226,
                "CDISCPILOT01",
                "QS",
                "CDISC014",
                22,
                "PHQ0106",
                "PHQ01-Feeling Bad About Yourself",
                "PHQ-9",
                "Not at all",
                "0",
                0,
                "",
                201,
                "EARLY DISCONTINUATION RETRIEVAL",
                "TREATMENT",
                "2013-09-18",
                169,
                "-P2W"
            ],
            [
                227,
                "CDISCPILOT01",
                "QS",
                "CDISC014",
                23,
                "PHQ0107",
                "PHQ01-Trouble Concentrating on Things",
                "PHQ-9",
                "Not at all",
                "0",
                0,
                "",
                201,
                "EARLY DISCONTINUATION RETRIEVAL",
                "TREATMENT",
                "2013-09-18",
                169,
                "-P2W"
            ],
            [
                228,
                "CDISCPILOT01",
                "QS",
                "CDISC014",
                24,
                "PHQ0108",
                "PHQ01-Moving Slowly or Fidgety/Restless",
                "PHQ-9",
                "Not at all",
                "0",
                0,
                "",
                201,
                "EARLY DISCONTINUATION RETRIEVAL",
                "TREATMENT",
                "2013-09-18",
                169,
                "-P2W"
            ],
            [
                229,
                "CDISCPILOT01",
                "QS",
                "CDISC014",
                25,
                "PHQ0109",
                "PHQ01-Thoughts You Be Better Off Dead",
                "PHQ-9",
                "Not at all",
                "0",
                0,
                "",
                201,
                "EARLY DISCONTINUATION RETRIEVAL",
                "TREATMENT",
                "2013-09-18",
                169,
                "-P2W"
            ],
            [
                230,
                "CDISCPILOT01",
                "QS",
                "CDISC014",
                26,
                "PHQ0110",
                "PHQ01-Difficult to Work/Take Care Things",
                "PHQ-9",
                "Not at all",
                "Not at all",
                null,
                "",
                201,
                "EARLY DISCONTINUATION RETRIEVAL",
                "TREATMENT",
                "2013-09-18",
                169,
                "-P2W"
            ],
            [
                231,
                "CDISCPILOT01",
                "QS",
                "CDISC014",
                27,
                "PHQ0111",
                "PHQ01-Total Score",
                "PHQ-9",
                "0",
                "0",
                0,
                "",
                201,
                "EARLY DISCONTINUATION RETRIEVAL",
                "TREATMENT",
                "2013-09-18",
                169,
                "-P2W"
            ],
            [
                232,
                "CDISCPILOT01",
                "QS",
                "CDISC016",
                1,
                "PHQ0101",
                "PHQ01-Little Interest/Pleasure in Things",
                "PHQ-9",
                "Several days",
                "1",
                1,
                "Y",
                3,
                "BASELINE",
                "SCREENING",
                "2013-04-03",
                1,
                "-P2W"
            ],
            [
                233,
                "CDISCPILOT01",
                "QS",
                "CDISC016",
                2,
                "PHQ0102",
                "PHQ01-Feeling Down Depressed or Hopeless",
                "PHQ-9",
                "More than half the days",
                "2",
                2,
                "Y",
                3,
                "BASELINE",
                "SCREENING",
                "2013-04-03",
                1,
                "-P2W"
            ],
            [
                234,
                "CDISCPILOT01",
                "QS",
                "CDISC016",
                3,
                "PHQ0103",
                "PHQ01-Trouble Falling or Staying Asleep",
                "PHQ-9",
                "More than half the days",
                "2",
                2,
                "Y",
                3,
                "BASELINE",
                "SCREENING",
                "2013-04-03",
                1,
                "-P2W"
            ],
            [
                235,
                "CDISCPILOT01",
                "QS",
                "CDISC016",
                4,
                "PHQ0104",
                "PHQ01-Feeling Tired or Little Energy",
                "PHQ-9",
                "Nearly every day",
                "3",
                3,
                "Y",
                3,
                "BASELINE",
                "SCREENING",
                "2013-04-03",
                1,
                "-P2W"
            ],
            [
                236,
                "CDISCPILOT01",
                "QS",
                "CDISC016",
                5,
                "PHQ0105",
                "PHQ01-Poor Appetite or Overeating",
                "PHQ-9",
                "More than half the days",
                "2",
                2,
                "Y",
                3,
                "BASELINE",
                "SCREENING",
                "2013-04-03",
                1,
                "-P2W"
            ],
            [
                237,
                "CDISCPILOT01",
                "QS",
                "CDISC016",
                6,
                "PHQ0106",
                "PHQ01-Feeling Bad About Yourself",
                "PHQ-9",
                "More than half the days",
                "2",
                2,
                "Y",
                3,
                "BASELINE",
                "SCREENING",
                "2013-04-03",
                1,
                "-P2W"
            ],
            [
                238,
                "CDISCPILOT01",
                "QS",
                "CDISC016",
                7,
                "PHQ0107",
                "PHQ01-Trouble Concentrating on Things",
                "PHQ-9",
                "Nearly every day",
                "3",
                3,
                "Y",
                3,
                "BASELINE",
                "SCREENING",
                "2013-04-03",
                1,
                "-P2W"
            ],
            [
                239,
                "CDISCPILOT01",
                "QS",
                "CDISC016",
                8,
                "PHQ0108",
                "PHQ01-Moving Slowly or Fidgety/Restless",
                "PHQ-9",
                "Nearly every day",
                "3",
                3,
                "Y",
                3,
                "BASELINE",
                "SCREENING",
                "2013-04-03",
                1,
                "-P2W"
            ],
            [
                240,
                "CDISCPILOT01",
                "QS",
                "CDISC016",
                9,
                "PHQ0109",
                "PHQ01-Thoughts You Be Better Off Dead",
                "PHQ-9",
                "More than half the days",
                "2",
                2,
                "Y",
                3,
                "BASELINE",
                "SCREENING",
                "2013-04-03",
                1,
                "-P2W"
            ],
            [
                241,
                "CDISCPILOT01",
                "QS",
                "CDISC016",
                10,
                "PHQ0110",
                "PHQ01-Difficult to Work/Take Care Things",
                "PHQ-9",
                "Somewhat difficult",
                "Somewhat difficult",
                null,
                "Y",
                3,
                "BASELINE",
                "SCREENING",
                "2013-04-03",
                1,
                "-P2W"
            ],
            [
                242,
                "CDISCPILOT01",
                "QS",
                "CDISC016",
                11,
                "PHQ0111",
                "PHQ01-Total Score",
                "PHQ-9",
                "20",
                "20",
                20,
                "Y",
                3,
                "BASELINE",
                "SCREENING",
                "2013-04-03",
                1,
                "-P2W"
            ],
            [
                243,
                "CDISCPILOT01",
                "QS",
                "CDISC016",
                17,
                "PHQ0101",
                "PHQ01-Little Interest/Pleasure in Things",
                "PHQ-9",
                "Several days",
                "1",
                1,
                "",
                9,
                "WEEK 12",
                "TREATMENT",
                "2013-06-01",
                60,
                "-P2W"
            ],
            [
                244,
                "CDISCPILOT01",
                "QS",
                "CDISC016",
                18,
                "PHQ0102",
                "PHQ01-Feeling Down Depressed or Hopeless",
                "PHQ-9",
                "More than half the days",
                "2",
                2,
                "",
                9,
                "WEEK 12",
                "TREATMENT",
                "2013-06-01",
                60,
                "-P2W"
            ],
            [
                245,
                "CDISCPILOT01",
                "QS",
                "CDISC016",
                19,
                "PHQ0103",
                "PHQ01-Trouble Falling or Staying Asleep",
                "PHQ-9",
                "More than half the days",
                "2",
                2,
                "",
                9,
                "WEEK 12",
                "TREATMENT",
                "2013-06-01",
                60,
                "-P2W"
            ],
            [
                246,
                "CDISCPILOT01",
                "QS",
                "CDISC016",
                20,
                "PHQ0104",
                "PHQ01-Feeling Tired or Little Energy",
                "PHQ-9",
                "Nearly every day",
                "3",
                3,
                "",
                9,
                "WEEK 12",
                "TREATMENT",
                "2013-06-01",
                60,
                "-P2W"
            ],
            [
                247,
                "CDISCPILOT01",
                "QS",
                "CDISC016",
                21,
                "PHQ0105",
                "PHQ01-Poor Appetite or Overeating",
                "PHQ-9",
                "More than half the days",
                "2",
                2,
                "",
                9,
                "WEEK 12",
                "TREATMENT",
                "2013-06-01",
                60,
                "-P2W"
            ],
            [
                248,
                "CDISCPILOT01",
                "QS",
                "CDISC016",
                22,
                "PHQ0106",
                "PHQ01-Feeling Bad About Yourself",
                "PHQ-9",
                "More than half the days",
                "2",
                2,
                "",
                9,
                "WEEK 12",
                "TREATMENT",
                "2013-06-01",
                60,
                "-P2W"
            ],
            [
                249,
                "CDISCPILOT01",
                "QS",
                "CDISC016",
                23,
                "PHQ0107",
                "PHQ01-Trouble Concentrating on Things",
                "PHQ-9",
                "Nearly every day",
                "3",
                3,
                "",
                9,
                "WEEK 12",
                "TREATMENT",
                "2013-06-01",
                60,
                "-P2W"
            ],
            [
                250,
                "CDISCPILOT01",
                "QS",
                "CDISC016",
                24,
                "PHQ0108",
                "PHQ01-Moving Slowly or Fidgety/Restless",
                "PHQ-9",
                "Nearly every day",
                "3",
                3,
                "",
                9,
                "WEEK 12",
                "TREATMENT",
                "2013-06-01",
                60,
                "-P2W"
            ],
            [
                251,
                "CDISCPILOT01",
                "QS",
                "CDISC016",
                25,
                "PHQ0109",
                "PHQ01-Thoughts You Be Better Off Dead",
                "PHQ-9",
                "More than half the days",
                "2",
                2,
                "",
                9,
                "WEEK 12",
                "TREATMENT",
                "2013-06-01",
                60,
                "-P2W"
            ],
            [
                252,
                "CDISCPILOT01",
                "QS",
                "CDISC016",
                26,
                "PHQ0110",
                "PHQ01-Difficult to Work/Take Care Things",
                "PHQ-9",
                "Somewhat difficult",
                "Somewhat difficult",
                null,
                "",
                9,
                "WEEK 12",
                "TREATMENT",
                "2013-06-01",
                60,
                "-P2W"
            ],
            [
                253,
                "CDISCPILOT01",
                "QS",
                "CDISC016",
                27,
                "PHQ0111",
                "PHQ01-Total Score",
                "PHQ-9",
                "20",
                "20",
                20,
                "",
                9,
                "WEEK 12",
                "TREATMENT",
                "2013-06-01",
                60,
                "-P2W"
            ],
            [
                254,
                "CDISCPILOT01",
                "QS",
                "CDISC016",
                33,
                "PHQ0101",
                "PHQ01-Little Interest/Pleasure in Things",
                "PHQ-9",
                "Several days",
                "1",
                1,
                "",
                201,
                "EARLY DISCONTINUATION RETRIEVAL",
                "TREATMENT",
                "2013-09-22",
                173,
                "-P2W"
            ],
            [
                255,
                "CDISCPILOT01",
                "QS",
                "CDISC016",
                34,
                "PHQ0102",
                "PHQ01-Feeling Down Depressed or Hopeless",
                "PHQ-9",
                "More than half the days",
                "2",
                2,
                "",
                201,
                "EARLY DISCONTINUATION RETRIEVAL",
                "TREATMENT",
                "2013-09-22",
                173,
                "-P2W"
            ],
            [
                256,
                "CDISCPILOT01",
                "QS",
                "CDISC016",
                35,
                "PHQ0103",
                "PHQ01-Trouble Falling or Staying Asleep",
                "PHQ-9",
                "More than half the days",
                "2",
                2,
                "",
                201,
                "EARLY DISCONTINUATION RETRIEVAL",
                "TREATMENT",
                "2013-09-22",
                173,
                "-P2W"
            ],
            [
                257,
                "CDISCPILOT01",
                "QS",
                "CDISC016",
                36,
                "PHQ0104",
                "PHQ01-Feeling Tired or Little Energy",
                "PHQ-9",
                "More than half the days",
                "2",
                2,
                "",
                201,
                "EARLY DISCONTINUATION RETRIEVAL",
                "TREATMENT",
                "2013-09-22",
                173,
                "-P2W"
            ],
            [
                258,
                "CDISCPILOT01",
                "QS",
                "CDISC016",
                37,
                "PHQ0105",
                "PHQ01-Poor Appetite or Overeating",
                "PHQ-9",
                "More than half the days",
                "2",
                2,
                "",
                201,
                "EARLY DISCONTINUATION RETRIEVAL",
                "TREATMENT",
                "2013-09-22",
                173,
                "-P2W"
            ],
            [
                259,
                "CDISCPILOT01",
                "QS",
                "CDISC016",
                38,
                "PHQ0106",
                "PHQ01-Feeling Bad About Yourself",
                "PHQ-9",
                "More than half the days",
                "2",
                2,
                "",
                201,
                "EARLY DISCONTINUATION RETRIEVAL",
                "TREATMENT",
                "2013-09-22",
                173,
                "-P2W"
            ],
            [
                260,
                "CDISCPILOT01",
                "QS",
                "CDISC016",
                39,
                "PHQ0107",
                "PHQ01-Trouble Concentrating on Things",
                "PHQ-9",
                "Several days",
                "1",
                1,
                "",
                201,
                "EARLY DISCONTINUATION RETRIEVAL",
                "TREATMENT",
                "2013-09-22",
                173,
                "-P2W"
            ],
            [
                261,
                "CDISCPILOT01",
                "QS",
                "CDISC016",
                40,
                "PHQ0108",
                "PHQ01-Moving Slowly or Fidgety/Restless",
                "PHQ-9",
                "More than half the days",
                "2",
                2,
                "",
                201,
                "EARLY DISCONTINUATION RETRIEVAL",
                "TREATMENT",
                "2013-09-22",
                173,
                "-P2W"
            ],
            [
                262,
                "CDISCPILOT01",
                "QS",
                "CDISC016",
                41,
                "PHQ0109",
                "PHQ01-Thoughts You Be Better Off Dead",
                "PHQ-9",
                "Several days",
                "1",
                1,
                "",
                201,
                "EARLY DISCONTINUATION RETRIEVAL",
                "TREATMENT",
                "2013-09-22",
                173,
                "-P2W"
            ],
            [
                263,
                "CDISCPILOT01",
                "QS",
                "CDISC016",
                42,
                "PHQ0110",
                "PHQ01-Difficult to Work/Take Care Things",
                "PHQ-9",
                "Not difficult at all",
                "Not difficult at all",
                null,
                "",
                201,
                "EARLY DISCONTINUATION RETRIEVAL",
                "TREATMENT",
                "2013-09-22",
                173,
                "-P2W"
            ],
            [
                264,
                "CDISCPILOT01",
                "QS",
                "CDISC016",
                43,
                "PHQ0111",
                "PHQ01-Total Score",
                "PHQ-9",
                "15",
                "15",
                15,
                "",
                201,
                "EARLY DISCONTINUATION RETRIEVAL",
                "TREATMENT",
                "2013-09-22",
                173,
                "-P2W"
            ],
            [
                265,
                "CDISCPILOT01",
                "QS",
                "CDISC017",
                1,
                "PHQ0101",
                "PHQ01-Little Interest/Pleasure in Things",
                "PHQ-9",
                "Several days",
                "1",
                1,
                "Y",
                3,
                "BASELINE",
                "SCREENING",
                "2013-09-21",
                1,
                "-P2W"
            ],
            [
                266,
                "CDISCPILOT01",
                "QS",
                "CDISC017",
                2,
                "PHQ0102",
                "PHQ01-Feeling Down Depressed or Hopeless",
                "PHQ-9",
                "Several days",
                "1",
                1,
                "Y",
                3,
                "BASELINE",
                "SCREENING",
                "2013-09-21",
                1,
                "-P2W"
            ],
            [
                267,
                "CDISCPILOT01",
                "QS",
                "CDISC017",
                3,
                "PHQ0103",
                "PHQ01-Trouble Falling or Staying Asleep",
                "PHQ-9",
                "Several days",
                "1",
                1,
                "Y",
                3,
                "BASELINE",
                "SCREENING",
                "2013-09-21",
                1,
                "-P2W"
            ],
            [
                268,
                "CDISCPILOT01",
                "QS",
                "CDISC017",
                4,
                "PHQ0104",
                "PHQ01-Feeling Tired or Little Energy",
                "PHQ-9",
                "More than half the days",
                "2",
                2,
                "Y",
                3,
                "BASELINE",
                "SCREENING",
                "2013-09-21",
                1,
                "-P2W"
            ],
            [
                269,
                "CDISCPILOT01",
                "QS",
                "CDISC017",
                5,
                "PHQ0105",
                "PHQ01-Poor Appetite or Overeating",
                "PHQ-9",
                "Several days",
                "1",
                1,
                "Y",
                3,
                "BASELINE",
                "SCREENING",
                "2013-09-21",
                1,
                "-P2W"
            ],
            [
                270,
                "CDISCPILOT01",
                "QS",
                "CDISC017",
                6,
                "PHQ0106",
                "PHQ01-Feeling Bad About Yourself",
                "PHQ-9",
                "Not at all",
                "0",
                0,
                "Y",
                3,
                "BASELINE",
                "SCREENING",
                "2013-09-21",
                1,
                "-P2W"
            ],
            [
                271,
                "CDISCPILOT01",
                "QS",
                "CDISC017",
                7,
                "PHQ0107",
                "PHQ01-Trouble Concentrating on Things",
                "PHQ-9",
                "Several days",
                "1",
                1,
                "Y",
                3,
                "BASELINE",
                "SCREENING",
                "2013-09-21",
                1,
                "-P2W"
            ],
            [
                272,
                "CDISCPILOT01",
                "QS",
                "CDISC017",
                8,
                "PHQ0108",
                "PHQ01-Moving Slowly or Fidgety/Restless",
                "PHQ-9",
                "Several days",
                "1",
                1,
                "Y",
                3,
                "BASELINE",
                "SCREENING",
                "2013-09-21",
                1,
                "-P2W"
            ],
            [
                273,
                "CDISCPILOT01",
                "QS",
                "CDISC017",
                9,
                "PHQ0109",
                "PHQ01-Thoughts You Be Better Off Dead",
                "PHQ-9",
                "Not at all",
                "0",
                0,
                "Y",
                3,
                "BASELINE",
                "SCREENING",
                "2013-09-21",
                1,
                "-P2W"
            ],
            [
                274,
                "CDISCPILOT01",
                "QS",
                "CDISC017",
                10,
                "PHQ0110",
                "PHQ01-Difficult to Work/Take Care Things",
                "PHQ-9",
                "Somewhat difficult",
                "Somewhat difficult",
                null,
                "Y",
                3,
                "BASELINE",
                "SCREENING",
                "2013-09-21",
                1,
                "-P2W"
            ],
            [
                275,
                "CDISCPILOT01",
                "QS",
                "CDISC017",
                11,
                "PHQ0111",
                "PHQ01-Total Score",
                "PHQ-9",
                "8",
                "8",
                8,
                "Y",
                3,
                "BASELINE",
                "SCREENING",
                "2013-09-21",
                1,
                "-P2W"
            ],
            [
                276,
                "CDISCPILOT01",
                "QS",
                "CDISC017",
                17,
                "PHQ0101",
                "PHQ01-Little Interest/Pleasure in Things",
                "PHQ-9",
                "Several days",
                "1",
                1,
                "",
                10,
                "WEEK 16",
                "TREATMENT",
                "2014-01-11",
                113,
                "-P2W"
            ],
            [
                277,
                "CDISCPILOT01",
                "QS",
                "CDISC017",
                18,
                "PHQ0102",
                "PHQ01-Feeling Down Depressed or Hopeless",
                "PHQ-9",
                "Several days",
                "1",
                1,
                "",
                10,
                "WEEK 16",
                "TREATMENT",
                "2014-01-11",
                113,
                "-P2W"
            ],
            [
                278,
                "CDISCPILOT01",
                "QS",
                "CDISC017",
                19,
                "PHQ0103",
                "PHQ01-Trouble Falling or Staying Asleep",
                "PHQ-9",
                "Several days",
                "1",
                1,
                "",
                10,
                "WEEK 16",
                "TREATMENT",
                "2014-01-11",
                113,
                "-P2W"
            ],
            [
                279,
                "CDISCPILOT01",
                "QS",
                "CDISC017",
                20,
                "PHQ0104",
                "PHQ01-Feeling Tired or Little Energy",
                "PHQ-9",
                "Several days",
                "1",
                1,
                "",
                10,
                "WEEK 16",
                "TREATMENT",
                "2014-01-11",
                113,
                "-P2W"
            ],
            [
                280,
                "CDISCPILOT01",
                "QS",
                "CDISC017",
                21,
                "PHQ0105",
                "PHQ01-Poor Appetite or Overeating",
                "PHQ-9",
                "Several days",
                "1",
                1,
                "",
                10,
                "WEEK 16",
                "TREATMENT",
                "2014-01-11",
                113,
                "-P2W"
            ],
            [
                281,
                "CDISCPILOT01",
                "QS",
                "CDISC017",
                22,
                "PHQ0106",
                "PHQ01-Feeling Bad About Yourself",
                "PHQ-9",
                "Not at all",
                "0",
                0,
                "",
                10,
                "WEEK 16",
                "TREATMENT",
                "2014-01-11",
                113,
                "-P2W"
            ],
            [
                282,
                "CDISCPILOT01",
                "QS",
                "CDISC017",
                23,
                "PHQ0107",
                "PHQ01-Trouble Concentrating on Things",
                "PHQ-9",
                "Several days",
                "1",
                1,
                "",
                10,
                "WEEK 16",
                "TREATMENT",
                "2014-01-11",
                113,
                "-P2W"
            ],
            [
                283,
                "CDISCPILOT01",
                "QS",
                "CDISC017",
                24,
                "PHQ0108",
                "PHQ01-Moving Slowly or Fidgety/Restless",
                "PHQ-9",
                "Several days",
                "1",
                1,
                "",
                10,
                "WEEK 16",
                "TREATMENT",
                "2014-01-11",
                113,
                "-P2W"
            ],
            [
                284,
                "CDISCPILOT01",
                "QS",
                "CDISC017",
                25,
                "PHQ0109",
                "PHQ01-Thoughts You Be Better Off Dead",
                "PHQ-9",
                "Not at all",
                "0",
                0,
                "",
                10,
                "WEEK 16",
                "TREATMENT",
                "2014-01-11",
                113,
                "-P2W"
            ],
            [
                285,
                "CDISCPILOT01",
                "QS",
                "CDISC017",
                26,
                "PHQ0110",
                "PHQ01-Difficult to Work/Take Care Things",
                "PHQ-9",
                "Not difficult at all",
                "Not difficult at all",
                null,
                "",
                10,
                "WEEK 16",
                "TREATMENT",
                "2014-01-11",
                113,
                "-P2W"
            ],
            [
                286,
                "CDISCPILOT01",
                "QS",
                "CDISC017",
                27,
                "PHQ0111",
                "PHQ01-Total Score",
                "PHQ-9",
                "7",
                "7",
                7,
                "",
                10,
                "WEEK 16",
                "TREATMENT",
                "2014-01-11",
                113,
                "-P2W"
            ],
            [
                287,
                "CDISCPILOT01",
                "QS",
                "CDISC017",
                33,
                "PHQ0101",
                "PHQ01-Little Interest/Pleasure in Things",
                "PHQ-9",
                "Several days",
                "1",
                1,
                "",
                11,
                "WEEK 20",
                "TREATMENT",
                "2014-02-08",
                141,
                "-P2W"
            ],
            [
                288,
                "CDISCPILOT01",
                "QS",
                "CDISC017",
                34,
                "PHQ0102",
                "PHQ01-Feeling Down Depressed or Hopeless",
                "PHQ-9",
                "Several days",
                "1",
                1,
                "",
                11,
                "WEEK 20",
                "TREATMENT",
                "2014-02-08",
                141,
                "-P2W"
            ],
            [
                289,
                "CDISCPILOT01",
                "QS",
                "CDISC017",
                35,
                "PHQ0103",
                "PHQ01-Trouble Falling or Staying Asleep",
                "PHQ-9",
                "Not at all",
                "0",
                0,
                "",
                11,
                "WEEK 20",
                "TREATMENT",
                "2014-02-08",
                141,
                "-P2W"
            ],
            [
                290,
                "CDISCPILOT01",
                "QS",
                "CDISC017",
                36,
                "PHQ0104",
                "PHQ01-Feeling Tired or Little Energy",
                "PHQ-9",
                "Several days",
                "1",
                1,
                "",
                11,
                "WEEK 20",
                "TREATMENT",
                "2014-02-08",
                141,
                "-P2W"
            ],
            [
                291,
                "CDISCPILOT01",
                "QS",
                "CDISC017",
                37,
                "PHQ0105",
                "PHQ01-Poor Appetite or Overeating",
                "PHQ-9",
                "Several days",
                "1",
                1,
                "",
                11,
                "WEEK 20",
                "TREATMENT",
                "2014-02-08",
                141,
                "-P2W"
            ],
            [
                292,
                "CDISCPILOT01",
                "QS",
                "CDISC017",
                38,
                "PHQ0106",
                "PHQ01-Feeling Bad About Yourself",
                "PHQ-9",
                "Not at all",
                "0",
                0,
                "",
                11,
                "WEEK 20",
                "TREATMENT",
                "2014-02-08",
                141,
                "-P2W"
            ],
            [
                293,
                "CDISCPILOT01",
                "QS",
                "CDISC017",
                39,
                "PHQ0107",
                "PHQ01-Trouble Concentrating on Things",
                "PHQ-9",
                "Not at all",
                "0",
                0,
                "",
                11,
                "WEEK 20",
                "TREATMENT",
                "2014-02-08",
                141,
                "-P2W"
            ],
            [
                294,
                "CDISCPILOT01",
                "QS",
                "CDISC017",
                40,
                "PHQ0108",
                "PHQ01-Moving Slowly or Fidgety/Restless",
                "PHQ-9",
                "Several days",
                "1",
                1,
                "",
                11,
                "WEEK 20",
                "TREATMENT",
                "2014-02-08",
                141,
                "-P2W"
            ],
            [
                295,
                "CDISCPILOT01",
                "QS",
                "CDISC017",
                41,
                "PHQ0109",
                "PHQ01-Thoughts You Be Better Off Dead",
                "PHQ-9",
                "Not at all",
                "0",
                0,
                "",
                11,
                "WEEK 20",
                "TREATMENT",
                "2014-02-08",
                141,
                "-P2W"
            ],
            [
                296,
                "CDISCPILOT01",
                "QS",
                "CDISC017",
                42,
                "PHQ0110",
                "PHQ01-Difficult to Work/Take Care Things",
                "PHQ-9",
                "Not difficult at all",
                "Not difficult at all",
                null,
                "",
                11,
                "WEEK 20",
                "TREATMENT",
                "2014-02-08",
                141,
                "-P2W"
            ],
            [
                297,
                "CDISCPILOT01",
                "QS",
                "CDISC017",
                43,
                "PHQ0111",
                "PHQ01-Total Score",
                "PHQ-9",
                "5",
                "5",
                5,
                "",
                11,
                "WEEK 20",
                "TREATMENT",
                "2014-02-08",
                141,
                "-P2W"
            ],
            [
                298,
                "CDISCPILOT01",
                "QS",
                "CDISC017",
                49,
                "PHQ0101",
                "PHQ01-Little Interest/Pleasure in Things",
                "PHQ-9",
                "Several days",
                "1",
                1,
                "",
                201,
                "EARLY DISCONTINUATION RETRIEVAL",
                "TREATMENT",
                "2014-03-08",
                169,
                "-P2W"
            ],
            [
                299,
                "CDISCPILOT01",
                "QS",
                "CDISC017",
                50,
                "PHQ0102",
                "PHQ01-Feeling Down Depressed or Hopeless",
                "PHQ-9",
                "Several days",
                "1",
                1,
                "",
                201,
                "EARLY DISCONTINUATION RETRIEVAL",
                "TREATMENT",
                "2014-03-08",
                169,
                "-P2W"
            ],
            [
                300,
                "CDISCPILOT01",
                "QS",
                "CDISC017",
                51,
                "PHQ0103",
                "PHQ01-Trouble Falling or Staying Asleep",
                "PHQ-9",
                "Not at all",
                "0",
                0,
                "",
                201,
                "EARLY DISCONTINUATION RETRIEVAL",
                "TREATMENT",
                "2014-03-08",
                169,
                "-P2W"
            ],
            [
                301,
                "CDISCPILOT01",
                "QS",
                "CDISC017",
                52,
                "PHQ0104",
                "PHQ01-Feeling Tired or Little Energy",
                "PHQ-9",
                "Several days",
                "1",
                1,
                "",
                201,
                "EARLY DISCONTINUATION RETRIEVAL",
                "TREATMENT",
                "2014-03-08",
                169,
                "-P2W"
            ],
            [
                302,
                "CDISCPILOT01",
                "QS",
                "CDISC017",
                53,
                "PHQ0105",
                "PHQ01-Poor Appetite or Overeating",
                "PHQ-9",
                "Several days",
                "1",
                1,
                "",
                201,
                "EARLY DISCONTINUATION RETRIEVAL",
                "TREATMENT",
                "2014-03-08",
                169,
                "-P2W"
            ],
            [
                303,
                "CDISCPILOT01",
                "QS",
                "CDISC017",
                54,
                "PHQ0106",
                "PHQ01-Feeling Bad About Yourself",
                "PHQ-9",
                "Not at all",
                "0",
                0,
                "",
                201,
                "EARLY DISCONTINUATION RETRIEVAL",
                "TREATMENT",
                "2014-03-08",
                169,
                "-P2W"
            ],
            [
                304,
                "CDISCPILOT01",
                "QS",
                "CDISC017",
                55,
                "PHQ0107",
                "PHQ01-Trouble Concentrating on Things",
                "PHQ-9",
                "Not at all",
                "0",
                0,
                "",
                201,
                "EARLY DISCONTINUATION RETRIEVAL",
                "TREATMENT",
                "2014-03-08",
                169,
                "-P2W"
            ],
            [
                305,
                "CDISCPILOT01",
                "QS",
                "CDISC017",
                56,
                "PHQ0108",
                "PHQ01-Moving Slowly or Fidgety/Restless",
                "PHQ-9",
                "Several days",
                "1",
                1,
                "",
                201,
                "EARLY DISCONTINUATION RETRIEVAL",
                "TREATMENT",
                "2014-03-08",
                169,
                "-P2W"
            ],
            [
                306,
                "CDISCPILOT01",
                "QS",
                "CDISC017",
                57,
                "PHQ0109",
                "PHQ01-Thoughts You Be Better Off Dead",
                "PHQ-9",
                "Not at all",
                "0",
                0,
                "",
                201,
                "EARLY DISCONTINUATION RETRIEVAL",
                "TREATMENT",
                "2014-03-08",
                169,
                "-P2W"
            ],
            [
                307,
                "CDISCPILOT01",
                "QS",
                "CDISC017",
                58,
                "PHQ0110",
                "PHQ01-Difficult to Work/Take Care Things",
                "PHQ-9",
                "Not difficult at all",
                "Not difficult at all",
                null,
                "",
                201,
                "EARLY DISCONTINUATION RETRIEVAL",
                "TREATMENT",
                "2014-03-08",
                169,
                "-P2W"
            ],
            [
                308,
                "CDISCPILOT01",
                "QS",
                "CDISC017",
                59,
                "PHQ0111",
                "PHQ01-Total Score",
                "PHQ-9",
                "5",
                "5",
                5,
                "",
                201,
                "EARLY DISCONTINUATION RETRIEVAL",
                "TREATMENT",
                "2014-03-08",
                169,
                "-P2W"
            ],
            [
                309,
                "CDISCPILOT01",
                "QS",
                "CDISC018",
                1,
                "PHQ0101",
                "PHQ01-Little Interest/Pleasure in Things",
                "PHQ-9",
                "More than half the days",
                "2",
                2,
                "Y",
                3,
                "BASELINE",
                "SCREENING",
                "2012-12-17",
                1,
                "-P2W"
            ],
            [
                310,
                "CDISCPILOT01",
                "QS",
                "CDISC018",
                2,
                "PHQ0102",
                "PHQ01-Feeling Down Depressed or Hopeless",
                "PHQ-9",
                "More than half the days",
                "2",
                2,
                "Y",
                3,
                "BASELINE",
                "SCREENING",
                "2012-12-17",
                1,
                "-P2W"
            ],
            [
                311,
                "CDISCPILOT01",
                "QS",
                "CDISC018",
                3,
                "PHQ0103",
                "PHQ01-Trouble Falling or Staying Asleep",
                "PHQ-9",
                "More than half the days",
                "2",
                2,
                "Y",
                3,
                "BASELINE",
                "SCREENING",
                "2012-12-17",
                1,
                "-P2W"
            ],
            [
                312,
                "CDISCPILOT01",
                "QS",
                "CDISC018",
                4,
                "PHQ0104",
                "PHQ01-Feeling Tired or Little Energy",
                "PHQ-9",
                "More than half the days",
                "2",
                2,
                "Y",
                3,
                "BASELINE",
                "SCREENING",
                "2012-12-17",
                1,
                "-P2W"
            ],
            [
                313,
                "CDISCPILOT01",
                "QS",
                "CDISC018",
                5,
                "PHQ0105",
                "PHQ01-Poor Appetite or Overeating",
                "PHQ-9",
                "Nearly every day",
                "3",
                3,
                "Y",
                3,
                "BASELINE",
                "SCREENING",
                "2012-12-17",
                1,
                "-P2W"
            ],
            [
                314,
                "CDISCPILOT01",
                "QS",
                "CDISC018",
                6,
                "PHQ0106",
                "PHQ01-Feeling Bad About Yourself",
                "PHQ-9",
                "Nearly every day",
                "3",
                3,
                "Y",
                3,
                "BASELINE",
                "SCREENING",
                "2012-12-17",
                1,
                "-P2W"
            ],
            [
                315,
                "CDISCPILOT01",
                "QS",
                "CDISC018",
                7,
                "PHQ0107",
                "PHQ01-Trouble Concentrating on Things",
                "PHQ-9",
                "More than half the days",
                "2",
                2,
                "Y",
                3,
                "BASELINE",
                "SCREENING",
                "2012-12-17",
                1,
                "-P2W"
            ],
            [
                316,
                "CDISCPILOT01",
                "QS",
                "CDISC018",
                8,
                "PHQ0108",
                "PHQ01-Moving Slowly or Fidgety/Restless",
                "PHQ-9",
                "Nearly every day",
                "3",
                3,
                "Y",
                3,
                "BASELINE",
                "SCREENING",
                "2012-12-17",
                1,
                "-P2W"
            ],
            [
                317,
                "CDISCPILOT01",
                "QS",
                "CDISC018",
                9,
                "PHQ0109",
                "PHQ01-Thoughts You Be Better Off Dead",
                "PHQ-9",
                "More than half the days",
                "2",
                2,
                "Y",
                3,
                "BASELINE",
                "SCREENING",
                "2012-12-17",
                1,
                "-P2W"
            ],
            [
                318,
                "CDISCPILOT01",
                "QS",
                "CDISC018",
                10,
                "PHQ0110",
                "PHQ01-Difficult to Work/Take Care Things",
                "PHQ-9",
                "Somewhat difficult",
                "Somewhat difficult",
                null,
                "Y",
                3,
                "BASELINE",
                "SCREENING",
                "2012-12-17",
                1,
                "-P2W"
            ],
            [
                319,
                "CDISCPILOT01",
                "QS",
                "CDISC018",
                11,
                "PHQ0111",
                "PHQ01-Total Score",
                "PHQ-9",
                "21",
                "21",
                21,
                "Y",
                3,
                "BASELINE",
                "SCREENING",
                "2012-12-17",
                1,
                "-P2W"
            ],
            [
                320,
                "CDISCPILOT01",
                "QS",
                "CDISC018",
                17,
                "PHQ0101",
                "PHQ01-Little Interest/Pleasure in Things",
                "PHQ-9",
                "More than half the days",
                "2",
                2,
                "",
                201,
                "EARLY DISCONTINUATION RETRIEVAL",
                "TREATMENT",
                "2013-06-03",
                169,
                "-P2W"
            ],
            [
                321,
                "CDISCPILOT01",
                "QS",
                "CDISC018",
                18,
                "PHQ0102",
                "PHQ01-Feeling Down Depressed or Hopeless",
                "PHQ-9",
                "More than half the days",
                "2",
                2,
                "",
                201,
                "EARLY DISCONTINUATION RETRIEVAL",
                "TREATMENT",
                "2013-06-03",
                169,
                "-P2W"
            ],
            [
                322,
                "CDISCPILOT01",
                "QS",
                "CDISC018",
                19,
                "PHQ0103",
                "PHQ01-Trouble Falling or Staying Asleep",
                "PHQ-9",
                "More than half the days",
                "2",
                2,
                "",
                201,
                "EARLY DISCONTINUATION RETRIEVAL",
                "TREATMENT",
                "2013-06-03",
                169,
                "-P2W"
            ],
            [
                323,
                "CDISCPILOT01",
                "QS",
                "CDISC018",
                20,
                "PHQ0104",
                "PHQ01-Feeling Tired or Little Energy",
                "PHQ-9",
                "More than half the days",
                "2",
                2,
                "",
                201,
                "EARLY DISCONTINUATION RETRIEVAL",
                "TREATMENT",
                "2013-06-03",
                169,
                "-P2W"
            ],
            [
                324,
                "CDISCPILOT01",
                "QS",
                "CDISC018",
                21,
                "PHQ0105",
                "PHQ01-Poor Appetite or Overeating",
                "PHQ-9",
                "Nearly every day",
                "3",
                3,
                "",
                201,
                "EARLY DISCONTINUATION RETRIEVAL",
                "TREATMENT",
                "2013-06-03",
                169,
                "-P2W"
            ],
            [
                325,
                "CDISCPILOT01",
                "QS",
                "CDISC018",
                22,
                "PHQ0106",
                "PHQ01-Feeling Bad About Yourself",
                "PHQ-9",
                "Nearly every day",
                "3",
                3,
                "",
                201,
                "EARLY DISCONTINUATION RETRIEVAL",
                "TREATMENT",
                "2013-06-03",
                169,
                "-P2W"
            ],
            [
                326,
                "CDISCPILOT01",
                "QS",
                "CDISC018",
                23,
                "PHQ0107",
                "PHQ01-Trouble Concentrating on Things",
                "PHQ-9",
                "More than half the days",
                "2",
                2,
                "",
                201,
                "EARLY DISCONTINUATION RETRIEVAL",
                "TREATMENT",
                "2013-06-03",
                169,
                "-P2W"
            ],
            [
                327,
                "CDISCPILOT01",
                "QS",
                "CDISC018",
                24,
                "PHQ0108",
                "PHQ01-Moving Slowly or Fidgety/Restless",
                "PHQ-9",
                "Nearly every day",
                "3",
                3,
                "",
                201,
                "EARLY DISCONTINUATION RETRIEVAL",
                "TREATMENT",
                "2013-06-03",
                169,
                "-P2W"
            ],
            [
                328,
                "CDISCPILOT01",
                "QS",
                "CDISC018",
                25,
                "PHQ0109",
                "PHQ01-Thoughts You Be Better Off Dead",
                "PHQ-9",
                "More than half the days",
                "2",
                2,
                "",
                201,
                "EARLY DISCONTINUATION RETRIEVAL",
                "TREATMENT",
                "2013-06-03",
                169,
                "-P2W"
            ],
            [
                329,
                "CDISCPILOT01",
                "QS",
                "CDISC018",
                26,
                "PHQ0110",
                "PHQ01-Difficult to Work/Take Care Things",
                "PHQ-9",
                "Somewhat difficult",
                "Somewhat difficult",
                null,
                "",
                201,
                "EARLY DISCONTINUATION RETRIEVAL",
                "TREATMENT",
                "2013-06-03",
                169,
                "-P2W"
            ],
            [
                330,
                "CDISCPILOT01",
                "QS",
                "CDISC018",
                27,
                "PHQ0111",
                "PHQ01-Total Score",
                "PHQ-9",
                "21",
                "21",
                21,
                "",
                201,
                "EARLY DISCONTINUATION RETRIEVAL",
                "TREATMENT",
                "2013-06-03",
                169,
                "-P2W"
            ]
        ]
    }}
}}
