{
  "clinicalData":{"studyOID":"cdisc.com/CDISCPILOT01","metaDataVersionOID":"MDV.MSGv2.0.SDTMIG.3.3.SDTM.1.7","itemGroupData": {"IG.VS":{"records":1414,"name":"VS","label":"Vital Signs","items":[{"OID": "ITEMGROUPDATASEQ", "name": "ITEMGROUPDATASEQ", "label": "Record Identifier", "type": "integer"},{"OID": "IT.VS.STUDYID", "name":"STUDYID", "label":"Study Identifier", "type":"string", "length":12},{"OID": "IT.VS.DOMAIN", "name":"DOMAIN", "label":"Domain Abbreviation", "type":"string", "length":2},{"OID": "IT.VS.USUBJID", "name":"USUBJID", "label":"Unique Subject Identifier", "type":"string", "length":8},{"OID": "IT.VS.VSSEQ", "name":"VSSEQ", "label":"Sequence Number", "type":"integer", "length":3},{"OID": "IT.VS.VSTESTCD", "name":"VSTESTCD", "label":"Vital Signs Test Short Name", "type":"string", "length":6},{"OID": "IT.VS.VSTEST", "name":"VSTEST", "label":"Vital Signs Test Name", "type":"string", "length":24},{"OID": "IT.VS.VSPOS", "name":"VSPOS", "label":"Vital Signs Position of Subject", "type":"string", "length":8},{"OID": "IT.VS.VSORRES", "name":"VSORRES", "label":"Result or Finding in Original Units", "type":"string", "length":8},{"OID": "IT.VS.VSORRESU", "name":"VSORRESU", "label":"Original Units", "type":"string", "length":9},{"OID": "IT.VS.VSSTRESC", "name":"VSSTRESC", "label":"Character Result/Finding in Std Format", "type":"string", "length":200},{"OID": "IT.VS.VSSTRESN", "name":"VSSTRESN", "label":"Numeric Result/Finding in Standard Units", "type":"float", "length":8, "fractionDigits":2},{"OID": "IT.VS.VSSTRESU", "name":"VSSTRESU", "label":"Standard Units", "type":"string", "length":9},{"OID": "IT.VS.VSSTAT", "name":"VSSTAT", "label":"Completion Status", "type":"string", "length":8},{"OID": "IT.VS.VSLOC", "name":"VSLOC", "label":"Location of Vital Signs Measurement", "type":"string", "length":11},{"OID": "IT.VS.VSLOBXFL", "name":"VSLOBXFL", "label":"Last Observation Before Exposure Flag", "type":"string", "length":1},{"OID": "IT.VS.VSREPNUM", "name":"VSREPNUM", "label":"Repetition Number", "type":"integer", "length":8},{"OID": "IT.VS.VISITNUM", "name":"VISITNUM", "label":"Visit Number", "type":"float", "length":8, "fractionDigits":2},{"OID": "IT.VS.VISIT", "name":"VISIT", "label":"Visit Name", "type":"string", "length":200},{"OID": "IT.VS.EPOCH", "name":"EPOCH", "label":"Epoch", "type":"string", "length":9},{"OID": "IT.VS.VSDTC", "name":"VSDTC", "label":"Date/Time of Measurements", "type":"string"},{"OID": "IT.VS.VSDY", "name":"VSDY", "label":"Study Day of Vital Signs", "type":"integer", "length":8}],"itemData": [
[1,"CDISCPILOT01","VS","CDISC001",1,"DIABP","Diastolic Blood Pressure","STANDING","71","mmHg","71",71,"mmHg","","","",null,1,"SCREENING 1","SCREENING","2012-11-23",-7],
[2,"CDISCPILOT01","VS","CDISC001",2,"DIABP_too_long","Diastolic Blood Pressure","STANDING","71","mmHg","71",71,"mmHg","","","",null,2,"SCREENING 2","SCREENING","2012-11-28",-2],
[3,"CDISCPILOT01","VS","CDISC001",3,"DIABP","Diastolic Blood Pressure","STANDING","83","mmHg","83",83,"mmHg","","","Y",null,3,"BASELINE","SCREENING","2012-11-30",1],
[4,"CDISCPILOT01","VS","CDISC001",4,"DIABP","Diastolic Blood Pressure","STANDING","79","mmHg","79",79,"mmHg","","","",null,4,"WEEK 2","TREATMENT","2012-12-13",14],
[5,"CDISCPILOT01","VS","CDISC001",5,"DIABP","Diastolic Blood Pressure","STANDING","68","mmHg","68",68,"mmHg","","","",null,5,"WEEK 4","TREATMENT","2012-12-26",27],
[6,"CDISCPILOT01","VS","CDISC001",6,"DIABP","Diastolic Blood Pressure","SUPINE","77","mmHg","77",77,"mmHg","","","",1,7,"WEEK 6","TREATMENT","2013-01-10",42],
[7,"CDISCPILOT01","VS","CDISC001",7,"DIABP","Diastolic Blood Pressure","STANDING","71","mmHg","71",71,"mmHg","","","",2,7,"WEEK 6","TREATMENT","2013-01-10",42],
[8,"CDISCPILOT01","VS","CDISC001",8,"DIABP","Diastolic Blood Pressure","STANDING","69","mmHg","69",69,"mmHg","","","",3,7,"WEEK 6","TREATMENT","2013-01-10",42],
[9,"CDISCPILOT01","VS","CDISC001",9,"DIABP","Diastolic Blood Pressure","SUPINE","76","mmHg","76",76,"mmHg","","","",1,8,"WEEK 8","TREATMENT","2013-01-23",55],
[10,"CDISCPILOT01","VS","CDISC001",10,"DIABP","Diastolic Blood Pressure","STANDING","52","mmHg","52",52,"mmHg","","","",2,8,"WEEK 8","TREATMENT","2013-01-23",55],
[11,"CDISCPILOT01","VS","CDISC001",11,"DIABP","Diastolic Blood Pressure","STANDING","60","mmHg","60",60,"mmHg","","","",3,8,"WEEK 8","TREATMENT","2013-01-23",55],
[12,"CDISCPILOT01","VS","CDISC001",12,"DIABP","Diastolic Blood Pressure","SUPINE","68","mmHg","68",68,"mmHg","","","",1,201,"EARLY DISCONTINUATION RETRIEVAL","TREATMENT","2013-05-20",172],
[13,"CDISCPILOT01","VS","CDISC001",13,"DIABP","Diastolic Blood Pressure","STANDING","72","mmHg","72",72,"mmHg","","","",2,201,"EARLY DISCONTINUATION RETRIEVAL","TREATMENT","2013-05-20",172],
[14,"CDISCPILOT01","VS","CDISC001",14,"DIABP","Diastolic Blood Pressure","STANDING","68","mmHg","68",68,"mmHg","","","",3,201,"EARLY DISCONTINUATION RETRIEVAL","TREATMENT","2013-05-20",172],
[15,"CDISCPILOT01","VS","CDISC001",15,"HEIGHT","Height","","71.5","in","181.61",181.61,"cm","","","",null,1,"SCREENING 1","SCREENING","2012-11-23",-7],
[16,"CDISCPILOT01","VS","CDISC001",16,"PULSE","Pulse Rate","STANDING","51","beats/min","51",51,"beats/min","","","",null,1,"SCREENING 1","SCREENING","2012-11-23",-7],
[17,"CDISCPILOT01","VS","CDISC001",17,"PULSE","Pulse Rate","STANDING","50","beats/min","50",50,"beats/min","","","",null,2,"SCREENING 2","SCREENING","2012-11-28",-2],
[18,"CDISCPILOT01","VS","CDISC001",18,"PULSE","Pulse Rate","STANDING","50","beats/min","50",50,"beats/min","","","Y",null,3,"BASELINE","SCREENING","2012-11-30",1],
[19,"CDISCPILOT01","VS","CDISC001",19,"PULSE","Pulse Rate","STANDING","53","beats/min","53",53,"beats/min","","","",null,4,"WEEK 2","TREATMENT","2012-12-13",14],
[20,"CDISCPILOT01","VS","CDISC001",20,"PULSE","Pulse Rate","STANDING","51","beats/min","51",51,"beats/min","","","",null,5,"WEEK 4","TREATMENT","2012-12-26",27],
[21,"CDISCPILOT01","VS","CDISC001",21,"PULSE","Pulse Rate","SUPINE","52","beats/min","52",52,"beats/min","","","",1,7,"WEEK 6","TREATMENT","2013-01-10",42],
[22,"CDISCPILOT01","VS","CDISC001",22,"PULSE","Pulse Rate","STANDING","62","beats/min","62",62,"beats/min","","","",2,7,"WEEK 6","TREATMENT","2013-01-10",42],
[23,"CDISCPILOT01","VS","CDISC001",23,"PULSE","Pulse Rate","STANDING","62","beats/min","62",62,"beats/min","","","",3,7,"WEEK 6","TREATMENT","2013-01-10",42],
[24,"CDISCPILOT01","VS","CDISC001",24,"PULSE","Pulse Rate","SUPINE","50","beats/min","50",50,"beats/min","","","",1,8,"WEEK 8","TREATMENT","2013-01-23",55],
[25,"CDISCPILOT01","VS","CDISC001",25,"PULSE","Pulse Rate","STANDING","52","beats/min","52",52,"beats/min","","","",2,8,"WEEK 8","TREATMENT","2013-01-23",55],
[26,"CDISCPILOT01","VS","CDISC001",26,"PULSE","Pulse Rate","STANDING","54","beats/min","54",54,"beats/min","","","",3,8,"WEEK 8","TREATMENT","2013-01-23",55],
[27,"CDISCPILOT01","VS","CDISC001",27,"PULSE","Pulse Rate","SUPINE","79","beats/min","79",79,"beats/min","","","",1,201,"EARLY DISCONTINUATION RETRIEVAL","TREATMENT","2013-05-20",172],
[28,"CDISCPILOT01","VS","CDISC001",28,"PULSE","Pulse Rate","STANDING","98","beats/min","98",98,"beats/min","","","",2,201,"EARLY DISCONTINUATION RETRIEVAL","TREATMENT","2013-05-20",172],
[29,"CDISCPILOT01","VS","CDISC001",29,"PULSE","Pulse Rate","STANDING","94","beats/min","94",94,"beats/min","","","",3,201,"EARLY DISCONTINUATION RETRIEVAL","TREATMENT","2013-05-20",172],
[30,"CDISCPILOT01","VS","CDISC001",30,"SYSBP","Systolic Blood Pressure","STANDING","137","mmHg","137",137,"mmHg","","","",null,1,"SCREENING 1","SCREENING","2012-11-23",-7],
[31,"CDISCPILOT01","VS","CDISC001",31,"SYSBP","Systolic Blood Pressure","STANDING","137","mmHg","137",137,"mmHg","","","",null,2,"SCREENING 2","SCREENING","2012-11-28",-2],
[32,"CDISCPILOT01","VS","CDISC001",32,"SYSBP","Systolic Blood Pressure","STANDING","130","mmHg","130",130,"mmHg","","","Y",null,3,"BASELINE","SCREENING","2012-11-30",1],
[33,"CDISCPILOT01","VS","CDISC001",33,"SYSBP","Systolic Blood Pressure","STANDING","122","mmHg","122",122,"mmHg","","","",null,4,"WEEK 2","TREATMENT","2012-12-13",14],
[34,"CDISCPILOT01","VS","CDISC001",34,"SYSBP","Systolic Blood Pressure","STANDING","115","mmHg","115",115,"mmHg","","","",null,5,"WEEK 4","TREATMENT","2012-12-26",27],
[35,"CDISCPILOT01","VS","CDISC001",35,"SYSBP","Systolic Blood Pressure","SUPINE","131","mmHg","131",131,"mmHg","","","",1,7,"WEEK 6","TREATMENT","2013-01-10",42],
[36,"CDISCPILOT01","VS","CDISC001",36,"SYSBP","Systolic Blood Pressure","STANDING","107","mmHg","107",107,"mmHg","","","",2,7,"WEEK 6","TREATMENT","2013-01-10",42],
[37,"CDISCPILOT01","VS","CDISC001",37,"SYSBP","Systolic Blood Pressure","STANDING","104","mmHg","104",104,"mmHg","","","",3,7,"WEEK 6","TREATMENT","2013-01-10",42],
[38,"CDISCPILOT01","VS","CDISC001",38,"SYSBP","Systolic Blood Pressure","SUPINE","123","mmHg","123",123,"mmHg","","","",1,8,"WEEK 8","TREATMENT","2013-01-23",55],
[39,"CDISCPILOT01","VS","CDISC001",39,"SYSBP","Systolic Blood Pressure","STANDING","113","mmHg","113",113,"mmHg","","","",2,8,"WEEK 8","TREATMENT","2013-01-23",55],
[40,"CDISCPILOT01","VS","CDISC001",40,"SYSBP","Systolic Blood Pressure","STANDING","98","mmHg","98",98,"mmHg","","","",3,8,"WEEK 8","TREATMENT","2013-01-23",55],
[41,"CDISCPILOT01","VS","CDISC001",41,"SYSBP","Systolic Blood Pressure","SUPINE","99","mmHg","99",99,"mmHg","","","",1,201,"EARLY DISCONTINUATION RETRIEVAL","TREATMENT","2013-05-20",172],
[42,"CDISCPILOT01","VS","CDISC001",42,"SYSBP","Systolic Blood Pressure","STANDING","99","mmHg","99",99,"mmHg","","","",2,201,"EARLY DISCONTINUATION RETRIEVAL","TREATMENT","2013-05-20",172],
[43,"CDISCPILOT01","VS","CDISC001",43,"SYSBP","Systolic Blood Pressure","STANDING","99","mmHg","99",99,"mmHg","","","",3,201,"EARLY DISCONTINUATION RETRIEVAL","TREATMENT","2013-05-20",172],
[44,"CDISCPILOT01","VS","CDISC001",44,"TEMP","Temperature","","97.4","F","36.33",36.33,"C","","ORAL CAVITY","",null,1,"SCREENING 1","SCREENING","2012-11-23",-7],
[45,"CDISCPILOT01","VS","CDISC001",45,"TEMP","Temperature","","97.2","F","36.22",36.22,"C","","ORAL CAVITY","",null,2,"SCREENING 2","SCREENING","2012-11-28",-2],
[46,"CDISCPILOT01","VS","CDISC001",46,"TEMP","Temperature","","98.0","F","36.67",36.67,"C","","ORAL CAVITY","Y",null,3,"BASELINE","SCREENING","2012-11-30",1],
[47,"CDISCPILOT01","VS","CDISC001",47,"TEMP","Temperature","","98.0","F","36.67",36.67,"C","","ORAL CAVITY","",null,4,"WEEK 2","TREATMENT","2012-12-13",14],
[48,"CDISCPILOT01","VS","CDISC001",48,"TEMP","Temperature","","97.7","F","36.5",36.5,"C","","ORAL CAVITY","",null,5,"WEEK 4","TREATMENT","2012-12-26",27],
[49,"CDISCPILOT01","VS","CDISC001",49,"TEMP","Temperature","","97.6","F","36.44",36.44,"C","","ORAL CAVITY","",null,7,"WEEK 6","TREATMENT","2013-01-10",42],
[50,"CDISCPILOT01","VS","CDISC001",50,"TEMP","Temperature","","97.6","F","36.44",36.44,"C","","ORAL CAVITY","",null,8,"WEEK 8","TREATMENT","2013-01-23",55],
[51,"CDISCPILOT01","VS","CDISC001",51,"TEMP","Temperature","","97.4","F","36.33",36.33,"C","","ORAL CAVITY","",null,201,"EARLY DISCONTINUATION RETRIEVAL","TREATMENT","2013-05-20",172],
[52,"CDISCPILOT01","VS","CDISC001",52,"WEIGHT","Weight","","173.5","LB","78.7",78.7,"kg","","","",null,1,"SCREENING 1","SCREENING","2012-11-23",-7],
[53,"CDISCPILOT01","VS","CDISC001",53,"WEIGHT","Weight","","174.0","LB","78.93",78.93,"kg","","","Y",null,3,"BASELINE","SCREENING","2012-11-30",1],
[54,"CDISCPILOT01","VS","CDISC001",54,"WEIGHT","Weight","","174.0","LB","78.93",78.93,"kg","","","",null,4,"WEEK 2","TREATMENT","2012-12-13",14],
[55,"CDISCPILOT01","VS","CDISC001",55,"WEIGHT","Weight","","173.0","LB","78.47",78.47,"kg","","","",null,5,"WEEK 4","TREATMENT","2012-12-26",27],
[56,"CDISCPILOT01","VS","CDISC001",56,"WEIGHT","Weight","","173.0","LB","78.47",78.47,"kg","","","",null,7,"WEEK 6","TREATMENT","2013-01-10",42],
[57,"CDISCPILOT01","VS","CDISC001",57,"WEIGHT","Weight","","173.0","LB","78.47",78.47,"kg","","","",null,8,"WEEK 8","TREATMENT","2013-01-23",55],
[58,"CDISCPILOT01","VS","CDISC002",1,"DIABP","Diastolic Blood Pressure","STANDING","60","mmHg","60",60,"mmHg","","","",null,1,"SCREENING 1","SCREENING","2012-10-30",-16],
[59,"CDISCPILOT01","VS","CDISC002",2,"DIABP","Diastolic Blood Pressure","STANDING","64","mmHg","64",64,"mmHg","","","",null,2,"SCREENING 2","SCREENING","2012-11-14",-1],
[60,"CDISCPILOT01","VS","CDISC002",3,"DIABP","Diastolic Blood Pressure","STANDING","64","mmHg","64",64,"mmHg","","","Y",null,3,"BASELINE","SCREENING","2012-11-15",1],
[61,"CDISCPILOT01","VS","CDISC002",4,"DIABP","Diastolic Blood Pressure","STANDING","58","mmHg","58",58,"mmHg","","","",null,4,"WEEK 2","TREATMENT","2012-11-28",14],
[62,"CDISCPILOT01","VS","CDISC002",5,"DIABP","Diastolic Blood Pressure","STANDING","55","mmHg","55",55,"mmHg","","","",null,5,"WEEK 4","TREATMENT","2012-12-11",27],
[63,"CDISCPILOT01","VS","CDISC002",6,"DIABP","Diastolic Blood Pressure","STANDING","60","mmHg","60",60,"mmHg","","","",null,7,"WEEK 6","TREATMENT","2012-12-25",41],
[64,"CDISCPILOT01","VS","CDISC002",7,"DIABP","Diastolic Blood Pressure","SUPINE","59","mmHg","59",59,"mmHg","","","",1,8,"WEEK 8","TREATMENT","2013-01-08",55],
[65,"CDISCPILOT01","VS","CDISC002",8,"DIABP","Diastolic Blood Pressure","STANDING","65","mmHg","65",65,"mmHg","","","",2,8,"WEEK 8","TREATMENT","2013-01-08",55],
[66,"CDISCPILOT01","VS","CDISC002",9,"DIABP","Diastolic Blood Pressure","STANDING","68","mmHg","68",68,"mmHg","","","",3,8,"WEEK 8","TREATMENT","2013-01-08",55],
[67,"CDISCPILOT01","VS","CDISC002",10,"HEIGHT","Height","","63.0","in","160.02",160.02,"cm","","","",null,1,"SCREENING 1","SCREENING","2012-10-30",-16],
[68,"CDISCPILOT01","VS","CDISC002",11,"PULSE","Pulse Rate","STANDING","55","beats/min","55",55,"beats/min","","","",null,1,"SCREENING 1","SCREENING","2012-10-30",-16],
[69,"CDISCPILOT01","VS","CDISC002",12,"PULSE","Pulse Rate","STANDING","66","beats/min","66",66,"beats/min","","","",null,2,"SCREENING 2","SCREENING","2012-11-14",-1],
[70,"CDISCPILOT01","VS","CDISC002",13,"PULSE","Pulse Rate","STANDING","57","beats/min","57",57,"beats/min","","","Y",null,3,"BASELINE","SCREENING","2012-11-15",1],
[71,"CDISCPILOT01","VS","CDISC002",14,"PULSE","Pulse Rate","STANDING","74","beats/min","74",74,"beats/min","","","",null,4,"WEEK 2","TREATMENT","2012-11-28",14],
[72,"CDISCPILOT01","VS","CDISC002",15,"PULSE","Pulse Rate","STANDING","66","beats/min","66",66,"beats/min","","","",null,5,"WEEK 4","TREATMENT","2012-12-11",27],
[73,"CDISCPILOT01","VS","CDISC002",16,"PULSE","Pulse Rate","STANDING","63","beats/min","63",63,"beats/min","","","",null,7,"WEEK 6","TREATMENT","2012-12-25",41],
[74,"CDISCPILOT01","VS","CDISC002",17,"PULSE","Pulse Rate","SUPINE","65","beats/min","65",65,"beats/min","","","",1,8,"WEEK 8","TREATMENT","2013-01-08",55],
[75,"CDISCPILOT01","VS","CDISC002",18,"PULSE","Pulse Rate","STANDING","75","beats/min","75",75,"beats/min","","","",2,8,"WEEK 8","TREATMENT","2013-01-08",55],
[76,"CDISCPILOT01","VS","CDISC002",19,"PULSE","Pulse Rate","STANDING","74","beats/min","74",74,"beats/min","","","",3,8,"WEEK 8","TREATMENT","2013-01-08",55],
[77,"CDISCPILOT01","VS","CDISC002",20,"SYSBP","Systolic Blood Pressure","STANDING","144","mmHg","144",144,"mmHg","","","",null,1,"SCREENING 1","SCREENING","2012-10-30",-16],
[78,"CDISCPILOT01","VS","CDISC002",21,"SYSBP","Systolic Blood Pressure","STANDING","137","mmHg","137",137,"mmHg","","","",null,2,"SCREENING 2","SCREENING","2012-11-14",-1],
[79,"CDISCPILOT01","VS","CDISC002",22,"SYSBP","Systolic Blood Pressure","STANDING","135","mmHg","135",135,"mmHg","","","Y",null,3,"BASELINE","SCREENING","2012-11-15",1],
[80,"CDISCPILOT01","VS","CDISC002",23,"SYSBP","Systolic Blood Pressure","STANDING","113","mmHg","113",113,"mmHg","","","",null,4,"WEEK 2","TREATMENT","2012-11-28",14],
[81,"CDISCPILOT01","VS","CDISC002",24,"SYSBP","Systolic Blood Pressure","STANDING","115","mmHg","115",115,"mmHg","","","",null,5,"WEEK 4","TREATMENT","2012-12-11",27],
[82,"CDISCPILOT01","VS","CDISC002",25,"SYSBP","Systolic Blood Pressure","STANDING","123","mmHg","123",123,"mmHg","","","",null,7,"WEEK 6","TREATMENT","2012-12-25",41],
[83,"CDISCPILOT01","VS","CDISC002",26,"SYSBP","Systolic Blood Pressure","SUPINE","156","mmHg","156",156,"mmHg","","","",1,8,"WEEK 8","TREATMENT","2013-01-08",55],
[84,"CDISCPILOT01","VS","CDISC002",27,"SYSBP","Systolic Blood Pressure","STANDING","114","mmHg","114",114,"mmHg","","","",2,8,"WEEK 8","TREATMENT","2013-01-08",55],
[85,"CDISCPILOT01","VS","CDISC002",28,"SYSBP","Systolic Blood Pressure","STANDING","127","mmHg","127",127,"mmHg","","","",3,8,"WEEK 8","TREATMENT","2013-01-08",55],
[86,"CDISCPILOT01","VS","CDISC002",29,"TEMP","Temperature","","99.6","F","37.56",37.56,"C","","ORAL CAVITY","",null,1,"SCREENING 1","SCREENING","2012-10-30",-16],
[87,"CDISCPILOT01","VS","CDISC002",30,"TEMP","Temperature","","98.7","F","37.06",37.06,"C","","ORAL CAVITY","",null,2,"SCREENING 2","SCREENING","2012-11-14",-1],
[88,"CDISCPILOT01","VS","CDISC002",31,"TEMP","Temperature","","97.8","F","36.56",36.56,"C","","ORAL CAVITY","Y",null,3,"BASELINE","SCREENING","2012-11-15",1],
[89,"CDISCPILOT01","VS","CDISC002",32,"TEMP","Temperature","","97.0","F","36.11",36.11,"C","","ORAL CAVITY","",null,4,"WEEK 2","TREATMENT","2012-11-28",14],
[90,"CDISCPILOT01","VS","CDISC002",33,"TEMP","Temperature","","97.8","F","36.56",36.56,"C","","ORAL CAVITY","",null,5,"WEEK 4","TREATMENT","2012-12-11",27],
[91,"CDISCPILOT01","VS","CDISC002",34,"TEMP","Temperature","","96.2","F","35.67",35.67,"C","","ORAL CAVITY","",null,7,"WEEK 6","TREATMENT","2012-12-25",41],
[92,"CDISCPILOT01","VS","CDISC002",35,"TEMP","Temperature","","97.2","F","36.22",36.22,"C","","ORAL CAVITY","",null,8,"WEEK 8","TREATMENT","2013-01-08",55],
[93,"CDISCPILOT01","VS","CDISC002",36,"WEIGHT","Weight","","101.0","LB","45.81",45.81,"kg","","","",null,1,"SCREENING 1","SCREENING","2012-10-30",-16],
[94,"CDISCPILOT01","VS","CDISC002",37,"WEIGHT","Weight","","100.0","LB","45.36",45.36,"kg","","","Y",null,3,"BASELINE","SCREENING","2012-11-15",1],
[95,"CDISCPILOT01","VS","CDISC002",38,"WEIGHT","Weight","","100.0","LB","45.36",45.36,"kg","","","",null,4,"WEEK 2","TREATMENT","2012-11-28",14],
[96,"CDISCPILOT01","VS","CDISC002",39,"WEIGHT","Weight","","101.0","LB","45.81",45.81,"kg","","","",null,5,"WEEK 4","TREATMENT","2012-12-11",27],
[97,"CDISCPILOT01","VS","CDISC002",40,"WEIGHT","Weight","","100.0","LB","45.36",45.36,"kg","","","",null,7,"WEEK 6","TREATMENT","2012-12-25",41],
[98,"CDISCPILOT01","VS","CDISC002",41,"WEIGHT","Weight","","95.0","LB","43.09",43.09,"kg","","","",null,8,"WEEK 8","TREATMENT","2013-01-08",55],
[99,"CDISCPILOT01","VS","CDISC003",1,"DIABP","Diastolic Blood Pressure","SUPINE","68","mmHg","68",68,"mmHg","","","",1,1,"SCREENING 1","SCREENING","2013-08-20",-9],
[100,"CDISCPILOT01","VS","CDISC003",2,"DIABP","Diastolic Blood Pressure","STANDING","79","mmHg","79",79,"mmHg","","","",2,1,"SCREENING 1","SCREENING","2013-08-20",-9],
[101,"CDISCPILOT01","VS","CDISC003",3,"DIABP","Diastolic Blood Pressure","STANDING","77","mmHg","77",77,"mmHg","","","",3,1,"SCREENING 1","SCREENING","2013-08-20",-9],
[102,"CDISCPILOT01","VS","CDISC003",4,"DIABP","Diastolic Blood Pressure","SUPINE","68","mmHg","68",68,"mmHg","","","",1,2,"SCREENING 2","SCREENING","2013-08-27",-2],
[103,"CDISCPILOT01","VS","CDISC003",5,"DIABP","Diastolic Blood Pressure","STANDING","75","mmHg","75",75,"mmHg","","","",2,2,"SCREENING 2","SCREENING","2013-08-27",-2],
[104,"CDISCPILOT01","VS","CDISC003",6,"DIABP","Diastolic Blood Pressure","STANDING","76","mmHg","76",76,"mmHg","","","",3,2,"SCREENING 2","SCREENING","2013-08-27",-2],
[105,"CDISCPILOT01","VS","CDISC003",7,"DIABP","Diastolic Blood Pressure","SUPINE","76","mmHg","76",76,"mmHg","","","",1,3,"BASELINE","SCREENING","2013-08-29",1],
[106,"CDISCPILOT01","VS","CDISC003",8,"DIABP","Diastolic Blood Pressure","STANDING","87","mmHg","87",87,"mmHg","","","",2,3,"BASELINE","SCREENING","2013-08-29",1],
[107,"CDISCPILOT01","VS","CDISC003",9,"DIABP","Diastolic Blood Pressure","STANDING","83","mmHg","83",83,"mmHg","","","Y",3,3,"BASELINE","SCREENING","2013-08-29",1],
[108,"CDISCPILOT01","VS","CDISC003",10,"DIABP","Diastolic Blood Pressure","SUPINE","71","mmHg","71",71,"mmHg","","","",1,4,"WEEK 2","TREATMENT","2013-09-15",18],
[109,"CDISCPILOT01","VS","CDISC003",11,"DIABP","Diastolic Blood Pressure","STANDING","79","mmHg","79",79,"mmHg","","","",2,4,"WEEK 2","TREATMENT","2013-09-15",18],
[110,"CDISCPILOT01","VS","CDISC003",12,"DIABP","Diastolic Blood Pressure","STANDING","84","mmHg","84",84,"mmHg","","","",3,4,"WEEK 2","TREATMENT","2013-09-15",18],
[111,"CDISCPILOT01","VS","CDISC003",13,"DIABP","Diastolic Blood Pressure","SUPINE","76","mmHg","76",76,"mmHg","","","",1,5,"WEEK 4","TREATMENT","2013-09-24",27],
[112,"CDISCPILOT01","VS","CDISC003",14,"DIABP","Diastolic Blood Pressure","STANDING","80","mmHg","80",80,"mmHg","","","",2,5,"WEEK 4","TREATMENT","2013-09-24",27],
[113,"CDISCPILOT01","VS","CDISC003",15,"DIABP","Diastolic Blood Pressure","STANDING","80","mmHg","80",80,"mmHg","","","",3,5,"WEEK 4","TREATMENT","2013-09-24",27],
[114,"CDISCPILOT01","VS","CDISC003",16,"DIABP","Diastolic Blood Pressure","SUPINE","65","mmHg","65",65,"mmHg","","","",1,7,"WEEK 6","TREATMENT","2013-10-08",41],
[115,"CDISCPILOT01","VS","CDISC003",17,"DIABP","Diastolic Blood Pressure","STANDING","70","mmHg","70",70,"mmHg","","","",2,7,"WEEK 6","TREATMENT","2013-10-08",41],
[116,"CDISCPILOT01","VS","CDISC003",18,"DIABP","Diastolic Blood Pressure","STANDING","76","mmHg","76",76,"mmHg","","","",3,7,"WEEK 6","TREATMENT","2013-10-08",41],
[117,"CDISCPILOT01","VS","CDISC003",19,"DIABP","Diastolic Blood Pressure","SUPINE","77","mmHg","77",77,"mmHg","","","",1,8,"WEEK 8","TREATMENT","2013-10-22",55],
[118,"CDISCPILOT01","VS","CDISC003",20,"DIABP","Diastolic Blood Pressure","STANDING","84","mmHg","84",84,"mmHg","","","",2,8,"WEEK 8","TREATMENT","2013-10-22",55],
[119,"CDISCPILOT01","VS","CDISC003",21,"DIABP","Diastolic Blood Pressure","STANDING","91","mmHg","91",91,"mmHg","","","",3,8,"WEEK 8","TREATMENT","2013-10-22",55],
[120,"CDISCPILOT01","VS","CDISC003",22,"DIABP","Diastolic Blood Pressure","SUPINE","76","mmHg","76",76,"mmHg","","","",1,9,"WEEK 12","TREATMENT","2013-11-05",69],
[121,"CDISCPILOT01","VS","CDISC003",23,"DIABP","Diastolic Blood Pressure","STANDING","81","mmHg","81",81,"mmHg","","","",2,9,"WEEK 12","TREATMENT","2013-11-05",69],
[122,"CDISCPILOT01","VS","CDISC003",24,"DIABP","Diastolic Blood Pressure","STANDING","81","mmHg","81",81,"mmHg","","","",3,9,"WEEK 12","TREATMENT","2013-11-05",69],
[123,"CDISCPILOT01","VS","CDISC003",25,"DIABP","Diastolic Blood Pressure","SUPINE","75","mmHg","75",75,"mmHg","","","",1,201,"EARLY DISCONTINUATION RETRIEVAL","TREATMENT","2014-02-13",169],
[124,"CDISCPILOT01","VS","CDISC003",26,"DIABP","Diastolic Blood Pressure","STANDING","83","mmHg","83",83,"mmHg","","","",2,201,"EARLY DISCONTINUATION RETRIEVAL","TREATMENT","2014-02-13",169],
[125,"CDISCPILOT01","VS","CDISC003",27,"DIABP","Diastolic Blood Pressure","STANDING","80","mmHg","80",80,"mmHg","","","",3,201,"EARLY DISCONTINUATION RETRIEVAL","TREATMENT","2014-02-13",169],
[126,"CDISCPILOT01","VS","CDISC003",28,"HEIGHT","Height","","70.0","in","177.8",177.8,"cm","","","",null,1,"SCREENING 1","SCREENING","2013-08-20",-9],
[127,"CDISCPILOT01","VS","CDISC003",29,"PULSE","Pulse Rate","SUPINE","58","beats/min","58",58,"beats/min","","","",1,1,"SCREENING 1","SCREENING","2013-08-20",-9],
[128,"CDISCPILOT01","VS","CDISC003",30,"PULSE","Pulse Rate","STANDING","68","beats/min","68",68,"beats/min","","","",2,1,"SCREENING 1","SCREENING","2013-08-20",-9],
[129,"CDISCPILOT01","VS","CDISC003",31,"PULSE","Pulse Rate","STANDING","64","beats/min","64",64,"beats/min","","","",3,1,"SCREENING 1","SCREENING","2013-08-20",-9],
[130,"CDISCPILOT01","VS","CDISC003",32,"PULSE","Pulse Rate","SUPINE","59","beats/min","59",59,"beats/min","","","",1,2,"SCREENING 2","SCREENING","2013-08-27",-2],
[131,"CDISCPILOT01","VS","CDISC003",33,"PULSE","Pulse Rate","STANDING","65","beats/min","65",65,"beats/min","","","",2,2,"SCREENING 2","SCREENING","2013-08-27",-2],
[132,"CDISCPILOT01","VS","CDISC003",34,"PULSE","Pulse Rate","STANDING","71","beats/min","71",71,"beats/min","","","",3,2,"SCREENING 2","SCREENING","2013-08-27",-2],
[133,"CDISCPILOT01","VS","CDISC003",35,"PULSE","Pulse Rate","SUPINE","54","beats/min","54",54,"beats/min","","","",1,3,"BASELINE","SCREENING","2013-08-29",1],
[134,"CDISCPILOT01","VS","CDISC003",36,"PULSE","Pulse Rate","STANDING","62","beats/min","62",62,"beats/min","","","",2,3,"BASELINE","SCREENING","2013-08-29",1],
[135,"CDISCPILOT01","VS","CDISC003",37,"PULSE","Pulse Rate","STANDING","61","beats/min","61",61,"beats/min","","","Y",3,3,"BASELINE","SCREENING","2013-08-29",1],
[136,"CDISCPILOT01","VS","CDISC003",38,"PULSE","Pulse Rate","SUPINE","72","beats/min","72",72,"beats/min","","","",1,4,"WEEK 2","TREATMENT","2013-09-15",18],
[137,"CDISCPILOT01","VS","CDISC003",39,"PULSE","Pulse Rate","STANDING","80","beats/min","80",80,"beats/min","","","",2,4,"WEEK 2","TREATMENT","2013-09-15",18],
[138,"CDISCPILOT01","VS","CDISC003",40,"PULSE","Pulse Rate","STANDING","82","beats/min","82",82,"beats/min","","","",3,4,"WEEK 2","TREATMENT","2013-09-15",18],
[139,"CDISCPILOT01","VS","CDISC003",41,"PULSE","Pulse Rate","SUPINE","52","beats/min","52",52,"beats/min","","","",1,5,"WEEK 4","TREATMENT","2013-09-24",27],
[140,"CDISCPILOT01","VS","CDISC003",42,"PULSE","Pulse Rate","STANDING","62","beats/min","62",62,"beats/min","","","",2,5,"WEEK 4","TREATMENT","2013-09-24",27],
[141,"CDISCPILOT01","VS","CDISC003",43,"PULSE","Pulse Rate","STANDING","66","beats/min","66",66,"beats/min","","","",3,5,"WEEK 4","TREATMENT","2013-09-24",27],
[142,"CDISCPILOT01","VS","CDISC003",44,"PULSE","Pulse Rate","SUPINE","79","beats/min","79",79,"beats/min","","","",1,7,"WEEK 6","TREATMENT","2013-10-08",41],
[143,"CDISCPILOT01","VS","CDISC003",45,"PULSE","Pulse Rate","STANDING","91","beats/min","91",91,"beats/min","","","",2,7,"WEEK 6","TREATMENT","2013-10-08",41],
[144,"CDISCPILOT01","VS","CDISC003",46,"PULSE","Pulse Rate","STANDING","86","beats/min","86",86,"beats/min","","","",3,7,"WEEK 6","TREATMENT","2013-10-08",41],
[145,"CDISCPILOT01","VS","CDISC003",47,"PULSE","Pulse Rate","SUPINE","62","beats/min","62",62,"beats/min","","","",1,8,"WEEK 8","TREATMENT","2013-10-22",55],
[146,"CDISCPILOT01","VS","CDISC003",48,"PULSE","Pulse Rate","STANDING","76","beats/min","76",76,"beats/min","","","",2,8,"WEEK 8","TREATMENT","2013-10-22",55],
[147,"CDISCPILOT01","VS","CDISC003",49,"PULSE","Pulse Rate","STANDING","77","beats/min","77",77,"beats/min","","","",3,8,"WEEK 8","TREATMENT","2013-10-22",55],
[148,"CDISCPILOT01","VS","CDISC003",50,"PULSE","Pulse Rate","SUPINE","53","beats/min","53",53,"beats/min","","","",1,9,"WEEK 12","TREATMENT","2013-11-05",69],
[149,"CDISCPILOT01","VS","CDISC003",51,"PULSE","Pulse Rate","STANDING","55","beats/min","55",55,"beats/min","","","",2,9,"WEEK 12","TREATMENT","2013-11-05",69],
[150,"CDISCPILOT01","VS","CDISC003",52,"PULSE","Pulse Rate","STANDING","56","beats/min","56",56,"beats/min","","","",3,9,"WEEK 12","TREATMENT","2013-11-05",69],
[151,"CDISCPILOT01","VS","CDISC003",53,"PULSE","Pulse Rate","SUPINE","50","beats/min","50",50,"beats/min","","","",1,201,"EARLY DISCONTINUATION RETRIEVAL","TREATMENT","2014-02-13",169],
[152,"CDISCPILOT01","VS","CDISC003",54,"PULSE","Pulse Rate","STANDING","57","beats/min","57",57,"beats/min","","","",2,201,"EARLY DISCONTINUATION RETRIEVAL","TREATMENT","2014-02-13",169],
[153,"CDISCPILOT01","VS","CDISC003",55,"PULSE","Pulse Rate","STANDING","60","beats/min","60",60,"beats/min","","","",3,201,"EARLY DISCONTINUATION RETRIEVAL","TREATMENT","2014-02-13",169],
[154,"CDISCPILOT01","VS","CDISC003",56,"SYSBP","Systolic Blood Pressure","SUPINE","115","mmHg","115",115,"mmHg","","","",1,1,"SCREENING 1","SCREENING","2013-08-20",-9],
[155,"CDISCPILOT01","VS","CDISC003",57,"SYSBP","Systolic Blood Pressure","STANDING","122","mmHg","122",122,"mmHg","","","",2,1,"SCREENING 1","SCREENING","2013-08-20",-9],
[156,"CDISCPILOT01","VS","CDISC003",58,"SYSBP","Systolic Blood Pressure","STANDING","123","mmHg","123",123,"mmHg","","","",3,1,"SCREENING 1","SCREENING","2013-08-20",-9],
[157,"CDISCPILOT01","VS","CDISC003",59,"SYSBP","Systolic Blood Pressure","SUPINE","121","mmHg","121",121,"mmHg","","","",1,2,"SCREENING 2","SCREENING","2013-08-27",-2],
[158,"CDISCPILOT01","VS","CDISC003",60,"SYSBP","Systolic Blood Pressure","STANDING","106","mmHg","106",106,"mmHg","","","",2,2,"SCREENING 2","SCREENING","2013-08-27",-2],
[159,"CDISCPILOT01","VS","CDISC003",61,"SYSBP","Systolic Blood Pressure","STANDING","115","mmHg","115",115,"mmHg","","","",3,2,"SCREENING 2","SCREENING","2013-08-27",-2],
[160,"CDISCPILOT01","VS","CDISC003",62,"SYSBP","Systolic Blood Pressure","SUPINE","131","mmHg","131",131,"mmHg","","","",1,3,"BASELINE","SCREENING","2013-08-29",1],
[161,"CDISCPILOT01","VS","CDISC003",63,"SYSBP","Systolic Blood Pressure","STANDING","137","mmHg","137",137,"mmHg","","","",2,3,"BASELINE","SCREENING","2013-08-29",1],
[162,"CDISCPILOT01","VS","CDISC003",64,"SYSBP","Systolic Blood Pressure","STANDING","136","mmHg","136",136,"mmHg","","","Y",3,3,"BASELINE","SCREENING","2013-08-29",1],
[163,"CDISCPILOT01","VS","CDISC003",65,"SYSBP","Systolic Blood Pressure","SUPINE","114","mmHg","114",114,"mmHg","","","",1,4,"WEEK 2","TREATMENT","2013-09-15",18],
[164,"CDISCPILOT01","VS","CDISC003",66,"SYSBP","Systolic Blood Pressure","STANDING","114","mmHg","114",114,"mmHg","","","",2,4,"WEEK 2","TREATMENT","2013-09-15",18],
[165,"CDISCPILOT01","VS","CDISC003",67,"SYSBP","Systolic Blood Pressure","STANDING","123","mmHg","123",123,"mmHg","","","",3,4,"WEEK 2","TREATMENT","2013-09-15",18],
[166,"CDISCPILOT01","VS","CDISC003",68,"SYSBP","Systolic Blood Pressure","SUPINE","123","mmHg","123",123,"mmHg","","","",1,5,"WEEK 4","TREATMENT","2013-09-24",27],
[167,"CDISCPILOT01","VS","CDISC003",69,"SYSBP","Systolic Blood Pressure","STANDING","115","mmHg","115",115,"mmHg","","","",2,5,"WEEK 4","TREATMENT","2013-09-24",27],
[168,"CDISCPILOT01","VS","CDISC003",70,"SYSBP","Systolic Blood Pressure","STANDING","131","mmHg","131",131,"mmHg","","","",3,5,"WEEK 4","TREATMENT","2013-09-24",27],
[169,"CDISCPILOT01","VS","CDISC003",71,"SYSBP","Systolic Blood Pressure","SUPINE","108","mmHg","108",108,"mmHg","","","",1,7,"WEEK 6","TREATMENT","2013-10-08",41],
[170,"CDISCPILOT01","VS","CDISC003",72,"SYSBP","Systolic Blood Pressure","STANDING","115","mmHg","115",115,"mmHg","","","",2,7,"WEEK 6","TREATMENT","2013-10-08",41],
[171,"CDISCPILOT01","VS","CDISC003",73,"SYSBP","Systolic Blood Pressure","STANDING","123","mmHg","123",123,"mmHg","","","",3,7,"WEEK 6","TREATMENT","2013-10-08",41],
[172,"CDISCPILOT01","VS","CDISC003",74,"SYSBP","Systolic Blood Pressure","SUPINE","115","mmHg","115",115,"mmHg","","","",1,8,"WEEK 8","TREATMENT","2013-10-22",55],
[173,"CDISCPILOT01","VS","CDISC003",75,"SYSBP","Systolic Blood Pressure","STANDING","115","mmHg","115",115,"mmHg","","","",2,8,"WEEK 8","TREATMENT","2013-10-22",55],
[174,"CDISCPILOT01","VS","CDISC003",76,"SYSBP","Systolic Blood Pressure","STANDING","114","mmHg","114",114,"mmHg","","","",3,8,"WEEK 8","TREATMENT","2013-10-22",55],
[175,"CDISCPILOT01","VS","CDISC003",77,"SYSBP","Systolic Blood Pressure","SUPINE","115","mmHg","115",115,"mmHg","","","",1,9,"WEEK 12","TREATMENT","2013-11-05",69],
[176,"CDISCPILOT01","VS","CDISC003",78,"SYSBP","Systolic Blood Pressure","STANDING","124","mmHg","124",124,"mmHg","","","",2,9,"WEEK 12","TREATMENT","2013-11-05",69],
[177,"CDISCPILOT01","VS","CDISC003",79,"SYSBP","Systolic Blood Pressure","STANDING","131","mmHg","131",131,"mmHg","","","",3,9,"WEEK 12","TREATMENT","2013-11-05",69],
[178,"CDISCPILOT01","VS","CDISC003",80,"SYSBP","Systolic Blood Pressure","SUPINE","122","mmHg","122",122,"mmHg","","","",1,201,"EARLY DISCONTINUATION RETRIEVAL","TREATMENT","2014-02-13",169],
[179,"CDISCPILOT01","VS","CDISC003",81,"SYSBP","Systolic Blood Pressure","STANDING","117","mmHg","117",117,"mmHg","","","",2,201,"EARLY DISCONTINUATION RETRIEVAL","TREATMENT","2014-02-13",169],
[180,"CDISCPILOT01","VS","CDISC003",82,"SYSBP","Systolic Blood Pressure","STANDING","131","mmHg","131",131,"mmHg","","","",3,201,"EARLY DISCONTINUATION RETRIEVAL","TREATMENT","2014-02-13",169],
[181,"CDISCPILOT01","VS","CDISC003",83,"TEMP","Temperature","","97.7","F","36.5",36.5,"C","","ORAL CAVITY","",null,1,"SCREENING 1","SCREENING","2013-08-20",-9],
[182,"CDISCPILOT01","VS","CDISC003",84,"TEMP","Temperature","","98.9","F","37.17",37.17,"C","","ORAL CAVITY","",null,2,"SCREENING 2","SCREENING","2013-08-27",-2],
[183,"CDISCPILOT01","VS","CDISC003",85,"TEMP","Temperature","","96.3","F","35.72",35.72,"C","","ORAL CAVITY","Y",null,3,"BASELINE","SCREENING","2013-08-29",1],
[184,"CDISCPILOT01","VS","CDISC003",86,"TEMP","Temperature","","98.3","F","36.83",36.83,"C","","ORAL CAVITY","",null,4,"WEEK 2","TREATMENT","2013-09-15",18],
[185,"CDISCPILOT01","VS","CDISC003",87,"TEMP","Temperature","","97.1","F","36.17",36.17,"C","","ORAL CAVITY","",null,5,"WEEK 4","TREATMENT","2013-09-24",27],
[186,"CDISCPILOT01","VS","CDISC003",88,"TEMP","Temperature","","97.9","F","36.61",36.61,"C","","ORAL CAVITY","",null,7,"WEEK 6","TREATMENT","2013-10-08",41],
[187,"CDISCPILOT01","VS","CDISC003",89,"TEMP","Temperature","","98.1","F","36.72",36.72,"C","","ORAL CAVITY","",null,8,"WEEK 8","TREATMENT","2013-10-22",55],
[188,"CDISCPILOT01","VS","CDISC003",90,"TEMP","Temperature","","97.9","F","36.61",36.61,"C","","ORAL CAVITY","",null,9,"WEEK 12","TREATMENT","2013-11-05",69],
[189,"CDISCPILOT01","VS","CDISC003",91,"TEMP","Temperature","","97.4","F","36.33",36.33,"C","","ORAL CAVITY","",null,201,"EARLY DISCONTINUATION RETRIEVAL","TREATMENT","2014-02-13",169],
[190,"CDISCPILOT01","VS","CDISC003",92,"WEIGHT","Weight","","179.0","LB","81.19",81.19,"kg","","","",null,1,"SCREENING 1","SCREENING","2013-08-20",-9],
[191,"CDISCPILOT01","VS","CDISC003",93,"WEIGHT","Weight","","181.0","LB","82.1",82.1,"kg","","","Y",null,3,"BASELINE","SCREENING","2013-08-29",1],
[192,"CDISCPILOT01","VS","CDISC003",94,"WEIGHT","Weight","","179.0","LB","81.19",81.19,"kg","","","",null,4,"WEEK 2","TREATMENT","2013-09-15",18],
[193,"CDISCPILOT01","VS","CDISC003",95,"WEIGHT","Weight","","182.0","LB","82.56",82.56,"kg","","","",null,5,"WEEK 4","TREATMENT","2013-09-24",27],
[194,"CDISCPILOT01","VS","CDISC003",96,"WEIGHT","Weight","","178.0","LB","80.74",80.74,"kg","","","",null,7,"WEEK 6","TREATMENT","2013-10-08",41],
[195,"CDISCPILOT01","VS","CDISC003",97,"WEIGHT","Weight","","181.0","LB","82.1",82.1,"kg","","","",null,8,"WEEK 8","TREATMENT","2013-10-22",55],
[196,"CDISCPILOT01","VS","CDISC003",98,"WEIGHT","Weight","","181.0","LB","82.1",82.1,"kg","","","",null,9,"WEEK 12","TREATMENT","2013-11-05",69],
[197,"CDISCPILOT01","VS","CDISC004",1,"DIABP","Diastolic Blood Pressure","SUPINE","47","mmHg","47",47,"mmHg","","","",1,1,"SCREENING 1","SCREENING","2013-10-01",-7],
[198,"CDISCPILOT01","VS","CDISC004",2,"DIABP","Diastolic Blood Pressure","STANDING","55","mmHg","55",55,"mmHg","","","",2,1,"SCREENING 1","SCREENING","2013-10-01",-7],
[199,"CDISCPILOT01","VS","CDISC004",3,"DIABP","Diastolic Blood Pressure","STANDING","56","mmHg","56",56,"mmHg","","","",3,1,"SCREENING 1","SCREENING","2013-10-01",-7],
[200,"CDISCPILOT01","VS","CDISC004",4,"DIABP","Diastolic Blood Pressure","SUPINE","56","mmHg","56",56,"mmHg","","","",1,2,"SCREENING 2","SCREENING","2013-10-06",-2],
[201,"CDISCPILOT01","VS","CDISC004",5,"DIABP","Diastolic Blood Pressure","STANDING","56","mmHg","56",56,"mmHg","","","",2,2,"SCREENING 2","SCREENING","2013-10-06",-2],
[202,"CDISCPILOT01","VS","CDISC004",6,"DIABP","Diastolic Blood Pressure","STANDING","57","mmHg","57",57,"mmHg","","","",3,2,"SCREENING 2","SCREENING","2013-10-06",-2],
[203,"CDISCPILOT01","VS","CDISC004",7,"DIABP","Diastolic Blood Pressure","SUPINE","58","mmHg","58",58,"mmHg","","","",1,3,"BASELINE","SCREENING","2013-10-08",1],
[204,"CDISCPILOT01","VS","CDISC004",8,"DIABP","Diastolic Blood Pressure","STANDING","52","mmHg","52",52,"mmHg","","","",2,3,"BASELINE","SCREENING","2013-10-08",1],
[205,"CDISCPILOT01","VS","CDISC004",9,"DIABP","Diastolic Blood Pressure","STANDING","54","mmHg","54",54,"mmHg","","","Y",3,3,"BASELINE","SCREENING","2013-10-08",1],
[206,"CDISCPILOT01","VS","CDISC004",10,"DIABP","Diastolic Blood Pressure","SUPINE","52","mmHg","52",52,"mmHg","","","",1,4,"WEEK 2","TREATMENT","2013-10-24",17],
[207,"CDISCPILOT01","VS","CDISC004",11,"DIABP","Diastolic Blood Pressure","STANDING","56","mmHg","56",56,"mmHg","","","",2,4,"WEEK 2","TREATMENT","2013-10-24",17],
[208,"CDISCPILOT01","VS","CDISC004",12,"DIABP","Diastolic Blood Pressure","STANDING","58","mmHg","58",58,"mmHg","","","",3,4,"WEEK 2","TREATMENT","2013-10-24",17],
[209,"CDISCPILOT01","VS","CDISC004",13,"DIABP","Diastolic Blood Pressure","SUPINE","41","mmHg","41",41,"mmHg","","","",1,5,"WEEK 4","TREATMENT","2013-11-08",32],
[210,"CDISCPILOT01","VS","CDISC004",14,"DIABP","Diastolic Blood Pressure","STANDING","39","mmHg","39",39,"mmHg","","","",2,5,"WEEK 4","TREATMENT","2013-11-08",32],
[211,"CDISCPILOT01","VS","CDISC004",15,"DIABP","Diastolic Blood Pressure","STANDING","50","mmHg","50",50,"mmHg","","","",3,5,"WEEK 4","TREATMENT","2013-11-08",32],
[212,"CDISCPILOT01","VS","CDISC004",16,"DIABP","Diastolic Blood Pressure","SUPINE","48","mmHg","48",48,"mmHg","","","",1,7,"WEEK 6","TREATMENT","2013-11-19",43],
[213,"CDISCPILOT01","VS","CDISC004",17,"DIABP","Diastolic Blood Pressure","STANDING","52","mmHg","52",52,"mmHg","","","",2,7,"WEEK 6","TREATMENT","2013-11-19",43],
[214,"CDISCPILOT01","VS","CDISC004",18,"DIABP","Diastolic Blood Pressure","STANDING","54","mmHg","54",54,"mmHg","","","",3,7,"WEEK 6","TREATMENT","2013-11-19",43],
[215,"CDISCPILOT01","VS","CDISC004",19,"DIABP","Diastolic Blood Pressure","SUPINE","49","mmHg","49",49,"mmHg","","","",1,8,"WEEK 8","TREATMENT","2013-12-03",57],
[216,"CDISCPILOT01","VS","CDISC004",20,"DIABP","Diastolic Blood Pressure","STANDING","52","mmHg","52",52,"mmHg","","","",2,8,"WEEK 8","TREATMENT","2013-12-03",57],
[217,"CDISCPILOT01","VS","CDISC004",21,"DIABP","Diastolic Blood Pressure","STANDING","57","mmHg","57",57,"mmHg","","","",3,8,"WEEK 8","TREATMENT","2013-12-03",57],
[218,"CDISCPILOT01","VS","CDISC004",22,"DIABP","Diastolic Blood Pressure","SUPINE","55","mmHg","55",55,"mmHg","","","",1,9,"WEEK 12","TREATMENT","2013-12-31",85],
[219,"CDISCPILOT01","VS","CDISC004",23,"DIABP","Diastolic Blood Pressure","STANDING","49","mmHg","49",49,"mmHg","","","",2,9,"WEEK 12","TREATMENT","2013-12-31",85],
[220,"CDISCPILOT01","VS","CDISC004",24,"DIABP","Diastolic Blood Pressure","STANDING","57","mmHg","57",57,"mmHg","","","",3,9,"WEEK 12","TREATMENT","2013-12-31",85],
[221,"CDISCPILOT01","VS","CDISC004",25,"DIABP","Diastolic Blood Pressure","SUPINE","52","mmHg","52",52,"mmHg","","","",1,10,"WEEK 16","TREATMENT","2014-01-27",112],
[222,"CDISCPILOT01","VS","CDISC004",26,"DIABP","Diastolic Blood Pressure","STANDING","49","mmHg","49",49,"mmHg","","","",2,10,"WEEK 16","TREATMENT","2014-01-27",112],
[223,"CDISCPILOT01","VS","CDISC004",27,"DIABP","Diastolic Blood Pressure","STANDING","55","mmHg","55",55,"mmHg","","","",3,10,"WEEK 16","TREATMENT","2014-01-27",112],
[224,"CDISCPILOT01","VS","CDISC004",28,"DIABP","Diastolic Blood Pressure","SUPINE","54","mmHg","54",54,"mmHg","","","",1,11,"WEEK 20","TREATMENT","2014-02-25",141],
[225,"CDISCPILOT01","VS","CDISC004",29,"DIABP","Diastolic Blood Pressure","STANDING","48","mmHg","48",48,"mmHg","","","",2,11,"WEEK 20","TREATMENT","2014-02-25",141],
[226,"CDISCPILOT01","VS","CDISC004",30,"DIABP","Diastolic Blood Pressure","STANDING","56","mmHg","56",56,"mmHg","","","",3,11,"WEEK 20","TREATMENT","2014-02-25",141],
[227,"CDISCPILOT01","VS","CDISC004",31,"DIABP","Diastolic Blood Pressure","SUPINE","48","mmHg","48",48,"mmHg","","","",1,12,"WEEK 24","TREATMENT","2014-03-18",162],
[228,"CDISCPILOT01","VS","CDISC004",32,"DIABP","Diastolic Blood Pressure","STANDING","56","mmHg","56",56,"mmHg","","","",2,12,"WEEK 24","TREATMENT","2014-03-18",162],
[229,"CDISCPILOT01","VS","CDISC004",33,"DIABP","Diastolic Blood Pressure","STANDING","51","mmHg","51",51,"mmHg","","","",3,12,"WEEK 24","TREATMENT","2014-03-18",162],
[230,"CDISCPILOT01","VS","CDISC004",34,"HEIGHT","Height","","68.5","in","173.99",173.99,"cm","","","",null,1,"SCREENING 1","SCREENING","2013-10-01",-7],
[231,"CDISCPILOT01","VS","CDISC004",35,"PULSE","Pulse Rate","SUPINE","62","beats/min","62",62,"beats/min","","","",1,1,"SCREENING 1","SCREENING","2013-10-01",-7],
[232,"CDISCPILOT01","VS","CDISC004",36,"PULSE","Pulse Rate","STANDING","74","beats/min","74",74,"beats/min","","","",2,1,"SCREENING 1","SCREENING","2013-10-01",-7],
[233,"CDISCPILOT01","VS","CDISC004",37,"PULSE","Pulse Rate","STANDING","80","beats/min","80",80,"beats/min","","","",3,1,"SCREENING 1","SCREENING","2013-10-01",-7],
[234,"CDISCPILOT01","VS","CDISC004",38,"PULSE","Pulse Rate","SUPINE","61","beats/min","61",61,"beats/min","","","",1,2,"SCREENING 2","SCREENING","2013-10-06",-2],
[235,"CDISCPILOT01","VS","CDISC004",39,"PULSE","Pulse Rate","STANDING","71","beats/min","71",71,"beats/min","","","",2,2,"SCREENING 2","SCREENING","2013-10-06",-2],
[236,"CDISCPILOT01","VS","CDISC004",40,"PULSE","Pulse Rate","STANDING","65","beats/min","65",65,"beats/min","","","",3,2,"SCREENING 2","SCREENING","2013-10-06",-2],
[237,"CDISCPILOT01","VS","CDISC004",41,"PULSE","Pulse Rate","SUPINE","61","beats/min","61",61,"beats/min","","","",1,3,"BASELINE","SCREENING","2013-10-08",1],
[238,"CDISCPILOT01","VS","CDISC004",42,"PULSE","Pulse Rate","STANDING","68","beats/min","68",68,"beats/min","","","",2,3,"BASELINE","SCREENING","2013-10-08",1],
[239,"CDISCPILOT01","VS","CDISC004",43,"PULSE","Pulse Rate","STANDING","67","beats/min","67",67,"beats/min","","","Y",3,3,"BASELINE","SCREENING","2013-10-08",1],
[240,"CDISCPILOT01","VS","CDISC004",44,"PULSE","Pulse Rate","SUPINE","62","beats/min","62",62,"beats/min","","","",1,4,"WEEK 2","TREATMENT","2013-10-24",17],
[241,"CDISCPILOT01","VS","CDISC004",45,"PULSE","Pulse Rate","STANDING","73","beats/min","73",73,"beats/min","","","",2,4,"WEEK 2","TREATMENT","2013-10-24",17],
[242,"CDISCPILOT01","VS","CDISC004",46,"PULSE","Pulse Rate","STANDING","74","beats/min","74",74,"beats/min","","","",3,4,"WEEK 2","TREATMENT","2013-10-24",17],
[243,"CDISCPILOT01","VS","CDISC004",47,"PULSE","Pulse Rate","SUPINE","66","beats/min","66",66,"beats/min","","","",1,5,"WEEK 4","TREATMENT","2013-11-08",32],
[244,"CDISCPILOT01","VS","CDISC004",48,"PULSE","Pulse Rate","STANDING","87","beats/min","87",87,"beats/min","","","",2,5,"WEEK 4","TREATMENT","2013-11-08",32],
[245,"CDISCPILOT01","VS","CDISC004",49,"PULSE","Pulse Rate","STANDING","86","beats/min","86",86,"beats/min","","","",3,5,"WEEK 4","TREATMENT","2013-11-08",32],
[246,"CDISCPILOT01","VS","CDISC004",50,"PULSE","Pulse Rate","SUPINE","62","beats/min","62",62,"beats/min","","","",1,7,"WEEK 6","TREATMENT","2013-11-19",43],
[247,"CDISCPILOT01","VS","CDISC004",51,"PULSE","Pulse Rate","STANDING","66","beats/min","66",66,"beats/min","","","",2,7,"WEEK 6","TREATMENT","2013-11-19",43],
[248,"CDISCPILOT01","VS","CDISC004",52,"PULSE","Pulse Rate","STANDING","68","beats/min","68",68,"beats/min","","","",3,7,"WEEK 6","TREATMENT","2013-11-19",43],
[249,"CDISCPILOT01","VS","CDISC004",53,"PULSE","Pulse Rate","SUPINE","59","beats/min","59",59,"beats/min","","","",1,8,"WEEK 8","TREATMENT","2013-12-03",57],
[250,"CDISCPILOT01","VS","CDISC004",54,"PULSE","Pulse Rate","STANDING","79","beats/min","79",79,"beats/min","","","",2,8,"WEEK 8","TREATMENT","2013-12-03",57],
[251,"CDISCPILOT01","VS","CDISC004",55,"PULSE","Pulse Rate","STANDING","83","beats/min","83",83,"beats/min","","","",3,8,"WEEK 8","TREATMENT","2013-12-03",57],
[252,"CDISCPILOT01","VS","CDISC004",56,"PULSE","Pulse Rate","SUPINE","62","beats/min","62",62,"beats/min","","","",1,9,"WEEK 12","TREATMENT","2013-12-31",85],
[253,"CDISCPILOT01","VS","CDISC004",57,"PULSE","Pulse Rate","STANDING","67","beats/min","67",67,"beats/min","","","",2,9,"WEEK 12","TREATMENT","2013-12-31",85],
[254,"CDISCPILOT01","VS","CDISC004",58,"PULSE","Pulse Rate","STANDING","65","beats/min","65",65,"beats/min","","","",3,9,"WEEK 12","TREATMENT","2013-12-31",85],
[255,"CDISCPILOT01","VS","CDISC004",59,"PULSE","Pulse Rate","SUPINE","66","beats/min","66",66,"beats/min","","","",1,10,"WEEK 16","TREATMENT","2014-01-27",112],
[256,"CDISCPILOT01","VS","CDISC004",60,"PULSE","Pulse Rate","STANDING","79","beats/min","79",79,"beats/min","","","",2,10,"WEEK 16","TREATMENT","2014-01-27",112],
[257,"CDISCPILOT01","VS","CDISC004",61,"PULSE","Pulse Rate","STANDING","83","beats/min","83",83,"beats/min","","","",3,10,"WEEK 16","TREATMENT","2014-01-27",112],
[258,"CDISCPILOT01","VS","CDISC004",62,"PULSE","Pulse Rate","SUPINE","61","beats/min","61",61,"beats/min","","","",1,11,"WEEK 20","TREATMENT","2014-02-25",141],
[259,"CDISCPILOT01","VS","CDISC004",63,"PULSE","Pulse Rate","STANDING","74","beats/min","74",74,"beats/min","","","",2,11,"WEEK 20","TREATMENT","2014-02-25",141],
[260,"CDISCPILOT01","VS","CDISC004",64,"PULSE","Pulse Rate","STANDING","75","beats/min","75",75,"beats/min","","","",3,11,"WEEK 20","TREATMENT","2014-02-25",141],
[261,"CDISCPILOT01","VS","CDISC004",65,"PULSE","Pulse Rate","SUPINE","64","beats/min","64",64,"beats/min","","","",1,12,"WEEK 24","TREATMENT","2014-03-18",162],
[262,"CDISCPILOT01","VS","CDISC004",66,"PULSE","Pulse Rate","STANDING","82","beats/min","82",82,"beats/min","","","",2,12,"WEEK 24","TREATMENT","2014-03-18",162],
[263,"CDISCPILOT01","VS","CDISC004",67,"PULSE","Pulse Rate","STANDING","80","beats/min","80",80,"beats/min","","","",3,12,"WEEK 24","TREATMENT","2014-03-18",162],
[264,"CDISCPILOT01","VS","CDISC004",68,"SYSBP","Systolic Blood Pressure","SUPINE","112","mmHg","112",112,"mmHg","","","",1,1,"SCREENING 1","SCREENING","2013-10-01",-7],
[265,"CDISCPILOT01","VS","CDISC004",69,"SYSBP","Systolic Blood Pressure","STANDING","110","mmHg","110",110,"mmHg","","","",2,1,"SCREENING 1","SCREENING","2013-10-01",-7],
[266,"CDISCPILOT01","VS","CDISC004",70,"SYSBP","Systolic Blood Pressure","STANDING","119","mmHg","119",119,"mmHg","","","",3,1,"SCREENING 1","SCREENING","2013-10-01",-7],
[267,"CDISCPILOT01","VS","CDISC004",71,"SYSBP","Systolic Blood Pressure","SUPINE","130","mmHg","130",130,"mmHg","","","",1,2,"SCREENING 2","SCREENING","2013-10-06",-2],
[268,"CDISCPILOT01","VS","CDISC004",72,"SYSBP","Systolic Blood Pressure","STANDING","121","mmHg","121",121,"mmHg","","","",2,2,"SCREENING 2","SCREENING","2013-10-06",-2],
[269,"CDISCPILOT01","VS","CDISC004",73,"SYSBP","Systolic Blood Pressure","STANDING","115","mmHg","115",115,"mmHg","","","",3,2,"SCREENING 2","SCREENING","2013-10-06",-2],
[270,"CDISCPILOT01","VS","CDISC004",74,"SYSBP","Systolic Blood Pressure","SUPINE","126","mmHg","126",126,"mmHg","","","",1,3,"BASELINE","SCREENING","2013-10-08",1],
[271,"CDISCPILOT01","VS","CDISC004",75,"SYSBP","Systolic Blood Pressure","STANDING","108","mmHg","108",108,"mmHg","","","",2,3,"BASELINE","SCREENING","2013-10-08",1],
[272,"CDISCPILOT01","VS","CDISC004",76,"SYSBP","Systolic Blood Pressure","STANDING","116","mmHg","116",116,"mmHg","","","Y",3,3,"BASELINE","SCREENING","2013-10-08",1],
[273,"CDISCPILOT01","VS","CDISC004",77,"SYSBP","Systolic Blood Pressure","SUPINE","116","mmHg","116",116,"mmHg","","","",1,4,"WEEK 2","TREATMENT","2013-10-24",17],
[274,"CDISCPILOT01","VS","CDISC004",78,"SYSBP","Systolic Blood Pressure","STANDING","110","mmHg","110",110,"mmHg","","","",2,4,"WEEK 2","TREATMENT","2013-10-24",17],
[275,"CDISCPILOT01","VS","CDISC004",79,"SYSBP","Systolic Blood Pressure","STANDING","118","mmHg","118",118,"mmHg","","","",3,4,"WEEK 2","TREATMENT","2013-10-24",17],
[276,"CDISCPILOT01","VS","CDISC004",80,"SYSBP","Systolic Blood Pressure","SUPINE","113","mmHg","113",113,"mmHg","","","",1,5,"WEEK 4","TREATMENT","2013-11-08",32],
[277,"CDISCPILOT01","VS","CDISC004",81,"SYSBP","Systolic Blood Pressure","STANDING","106","mmHg","106",106,"mmHg","","","",2,5,"WEEK 4","TREATMENT","2013-11-08",32],
[278,"CDISCPILOT01","VS","CDISC004",82,"SYSBP","Systolic Blood Pressure","STANDING","123","mmHg","123",123,"mmHg","","","",3,5,"WEEK 4","TREATMENT","2013-11-08",32],
[279,"CDISCPILOT01","VS","CDISC004",83,"SYSBP","Systolic Blood Pressure","SUPINE","129","mmHg","129",129,"mmHg","","","",1,7,"WEEK 6","TREATMENT","2013-11-19",43],
[280,"CDISCPILOT01","VS","CDISC004",84,"SYSBP","Systolic Blood Pressure","STANDING","122","mmHg","122",122,"mmHg","","","",2,7,"WEEK 6","TREATMENT","2013-11-19",43],
[281,"CDISCPILOT01","VS","CDISC004",85,"SYSBP","Systolic Blood Pressure","STANDING","115","mmHg","115",115,"mmHg","","","",3,7,"WEEK 6","TREATMENT","2013-11-19",43],
[282,"CDISCPILOT01","VS","CDISC004",86,"SYSBP","Systolic Blood Pressure","SUPINE","115","mmHg","115",115,"mmHg","","","",1,8,"WEEK 8","TREATMENT","2013-12-03",57],
[283,"CDISCPILOT01","VS","CDISC004",87,"SYSBP","Systolic Blood Pressure","STANDING","105","mmHg","105",105,"mmHg","","","",2,8,"WEEK 8","TREATMENT","2013-12-03",57],
[284,"CDISCPILOT01","VS","CDISC004",88,"SYSBP","Systolic Blood Pressure","STANDING","108","mmHg","108",108,"mmHg","","","",3,8,"WEEK 8","TREATMENT","2013-12-03",57],
[285,"CDISCPILOT01","VS","CDISC004",89,"SYSBP","Systolic Blood Pressure","SUPINE","121","mmHg","121",121,"mmHg","","","",1,9,"WEEK 12","TREATMENT","2013-12-31",85],
[286,"CDISCPILOT01","VS","CDISC004",90,"SYSBP","Systolic Blood Pressure","STANDING","113","mmHg","113",113,"mmHg","","","",2,9,"WEEK 12","TREATMENT","2013-12-31",85],
[287,"CDISCPILOT01","VS","CDISC004",91,"SYSBP","Systolic Blood Pressure","STANDING","121","mmHg","121",121,"mmHg","","","",3,9,"WEEK 12","TREATMENT","2013-12-31",85],
[288,"CDISCPILOT01","VS","CDISC004",92,"SYSBP","Systolic Blood Pressure","SUPINE","120","mmHg","120",120,"mmHg","","","",1,10,"WEEK 16","TREATMENT","2014-01-27",112],
[289,"CDISCPILOT01","VS","CDISC004",93,"SYSBP","Systolic Blood Pressure","STANDING","114","mmHg","114",114,"mmHg","","","",2,10,"WEEK 16","TREATMENT","2014-01-27",112],
[290,"CDISCPILOT01","VS","CDISC004",94,"SYSBP","Systolic Blood Pressure","STANDING","123","mmHg","123",123,"mmHg","","","",3,10,"WEEK 16","TREATMENT","2014-01-27",112],
[291,"CDISCPILOT01","VS","CDISC004",95,"SYSBP","Systolic Blood Pressure","SUPINE","113","mmHg","113",113,"mmHg","","","",1,11,"WEEK 20","TREATMENT","2014-02-25",141],
[292,"CDISCPILOT01","VS","CDISC004",96,"SYSBP","Systolic Blood Pressure","STANDING","104","mmHg","104",104,"mmHg","","","",2,11,"WEEK 20","TREATMENT","2014-02-25",141],
[293,"CDISCPILOT01","VS","CDISC004",97,"SYSBP","Systolic Blood Pressure","STANDING","122","mmHg","122",122,"mmHg","","","",3,11,"WEEK 20","TREATMENT","2014-02-25",141],
[294,"CDISCPILOT01","VS","CDISC004",98,"SYSBP","Systolic Blood Pressure","SUPINE","122","mmHg","122",122,"mmHg","","","",1,12,"WEEK 24","TREATMENT","2014-03-18",162],
[295,"CDISCPILOT01","VS","CDISC004",99,"SYSBP","Systolic Blood Pressure","STANDING","120","mmHg","120",120,"mmHg","","","",2,12,"WEEK 24","TREATMENT","2014-03-18",162],
[296,"CDISCPILOT01","VS","CDISC004",100,"SYSBP","Systolic Blood Pressure","STANDING","113","mmHg","113",113,"mmHg","","","",3,12,"WEEK 24","TREATMENT","2014-03-18",162],
[297,"CDISCPILOT01","VS","CDISC004",101,"TEMP","Temperature","","98.5","F","36.94",36.94,"C","","ORAL CAVITY","",null,1,"SCREENING 1","SCREENING","2013-10-01",-7],
[298,"CDISCPILOT01","VS","CDISC004",102,"TEMP","Temperature","","98.0","F","36.67",36.67,"C","","ORAL CAVITY","",null,2,"SCREENING 2","SCREENING","2013-10-06",-2],
[299,"CDISCPILOT01","VS","CDISC004",103,"TEMP","Temperature","","97.6","F","36.44",36.44,"C","","ORAL CAVITY","Y",null,3,"BASELINE","SCREENING","2013-10-08",1],
[300,"CDISCPILOT01","VS","CDISC004",104,"TEMP","Temperature","","98.8","F","37.11",37.11,"C","","ORAL CAVITY","",null,4,"WEEK 2","TREATMENT","2013-10-24",17],
[301,"CDISCPILOT01","VS","CDISC004",105,"TEMP","Temperature","","98.9","F","37.17",37.17,"C","","ORAL CAVITY","",null,5,"WEEK 4","TREATMENT","2013-11-08",32],
[302,"CDISCPILOT01","VS","CDISC004",106,"TEMP","Temperature","","97.2","F","36.22",36.22,"C","","ORAL CAVITY","",null,7,"WEEK 6","TREATMENT","2013-11-19",43],
[303,"CDISCPILOT01","VS","CDISC004",107,"TEMP","Temperature","","98.9","F","37.17",37.17,"C","","ORAL CAVITY","",null,8,"WEEK 8","TREATMENT","2013-12-03",57],
[304,"CDISCPILOT01","VS","CDISC004",108,"TEMP","Temperature","","98.4","F","36.89",36.89,"C","","ORAL CAVITY","",null,9,"WEEK 12","TREATMENT","2013-12-31",85],
[305,"CDISCPILOT01","VS","CDISC004",109,"TEMP","Temperature","","97.7","F","36.5",36.5,"C","","ORAL CAVITY","",null,10,"WEEK 16","TREATMENT","2014-01-27",112],
[306,"CDISCPILOT01","VS","CDISC004",110,"TEMP","Temperature","","98.2","F","36.78",36.78,"C","","ORAL CAVITY","",null,11,"WEEK 20","TREATMENT","2014-02-25",141],
[307,"CDISCPILOT01","VS","CDISC004",111,"TEMP","Temperature","","97.8","F","36.56",36.56,"C","","ORAL CAVITY","",null,12,"WEEK 24","TREATMENT","2014-03-18",162],
[308,"CDISCPILOT01","VS","CDISC004",112,"WEIGHT","Weight","","123.0","LB","55.79",55.79,"kg","","","",null,1,"SCREENING 1","SCREENING","2013-10-01",-7],
[309,"CDISCPILOT01","VS","CDISC004",113,"WEIGHT","Weight","","124.0","LB","56.25",56.25,"kg","","","Y",null,3,"BASELINE","SCREENING","2013-10-08",1],
[310,"CDISCPILOT01","VS","CDISC004",114,"WEIGHT","Weight","","124.0","LB","56.25",56.25,"kg","","","",null,4,"WEEK 2","TREATMENT","2013-10-24",17],
[311,"CDISCPILOT01","VS","CDISC004",115,"WEIGHT","Weight","","124.0","LB","56.25",56.25,"kg","","","",null,5,"WEEK 4","TREATMENT","2013-11-08",32],
[312,"CDISCPILOT01","VS","CDISC004",116,"WEIGHT","Weight","","125.0","LB","56.7",56.7,"kg","","","",null,7,"WEEK 6","TREATMENT","2013-11-19",43],
[313,"CDISCPILOT01","VS","CDISC004",117,"WEIGHT","Weight","","124.0","LB","56.25",56.25,"kg","","","",null,8,"WEEK 8","TREATMENT","2013-12-03",57],
[314,"CDISCPILOT01","VS","CDISC004",118,"WEIGHT","Weight","","124.0","LB","56.25",56.25,"kg","","","",null,9,"WEEK 12","TREATMENT","2013-12-31",85],
[315,"CDISCPILOT01","VS","CDISC004",119,"WEIGHT","Weight","","125.0","LB","56.7",56.7,"kg","","","",null,10,"WEEK 16","TREATMENT","2014-01-27",112],
[316,"CDISCPILOT01","VS","CDISC004",120,"WEIGHT","Weight","","126.0","LB","57.15",57.15,"kg","","","",null,11,"WEEK 20","TREATMENT","2014-02-25",141],
[317,"CDISCPILOT01","VS","CDISC004",121,"WEIGHT","Weight","","126.0","LB","57.15",57.15,"kg","","","",null,12,"WEEK 24","TREATMENT","2014-03-18",162],
[318,"CDISCPILOT01","VS","CDISC005",1,"DIABP","Diastolic Blood Pressure","SUPINE","72","mmHg","72",72,"mmHg","","","",1,1,"SCREENING 1","SCREENING","2013-01-22",-13],
[319,"CDISCPILOT01","VS","CDISC005",2,"DIABP","Diastolic Blood Pressure","STANDING","66","mmHg","66",66,"mmHg","","","",2,1,"SCREENING 1","SCREENING","2013-01-22",-13],
[320,"CDISCPILOT01","VS","CDISC005",3,"DIABP","Diastolic Blood Pressure","STANDING","66","mmHg","66",66,"mmHg","","","",3,1,"SCREENING 1","SCREENING","2013-01-22",-13],
[321,"CDISCPILOT01","VS","CDISC005",4,"DIABP","Diastolic Blood Pressure","SUPINE","56","mmHg","56",56,"mmHg","","","",1,2,"SCREENING 2","SCREENING","2013-02-02",-2],
[322,"CDISCPILOT01","VS","CDISC005",5,"DIABP","Diastolic Blood Pressure","STANDING","71","mmHg","71",71,"mmHg","","","",2,2,"SCREENING 2","SCREENING","2013-02-02",-2],
[323,"CDISCPILOT01","VS","CDISC005",6,"DIABP","Diastolic Blood Pressure","STANDING","74","mmHg","74",74,"mmHg","","","",3,2,"SCREENING 2","SCREENING","2013-02-02",-2],
[324,"CDISCPILOT01","VS","CDISC005",7,"DIABP","Diastolic Blood Pressure","SUPINE","63","mmHg","63",63,"mmHg","","","",1,3,"BASELINE","SCREENING","2013-02-04",1],
[325,"CDISCPILOT01","VS","CDISC005",8,"DIABP","Diastolic Blood Pressure","STANDING","60","mmHg","60",60,"mmHg","","","",2,3,"BASELINE","SCREENING","2013-02-04",1],
[326,"CDISCPILOT01","VS","CDISC005",9,"DIABP","Diastolic Blood Pressure","STANDING","65","mmHg","65",65,"mmHg","","","Y",3,3,"BASELINE","SCREENING","2013-02-04",1],
[327,"CDISCPILOT01","VS","CDISC005",10,"DIABP","Diastolic Blood Pressure","SUPINE","66","mmHg","66",66,"mmHg","","","",1,4,"WEEK 2","TREATMENT","2013-02-19",16],
[328,"CDISCPILOT01","VS","CDISC005",11,"DIABP","Diastolic Blood Pressure","STANDING","56","mmHg","56",56,"mmHg","","","",2,4,"WEEK 2","TREATMENT","2013-02-19",16],
[329,"CDISCPILOT01","VS","CDISC005",12,"DIABP","Diastolic Blood Pressure","STANDING","66","mmHg","66",66,"mmHg","","","",3,4,"WEEK 2","TREATMENT","2013-02-19",16],
[330,"CDISCPILOT01","VS","CDISC005",13,"DIABP","Diastolic Blood Pressure","SUPINE","54","mmHg","54",54,"mmHg","","","",1,5,"WEEK 4","TREATMENT","2013-03-12",37],
[331,"CDISCPILOT01","VS","CDISC005",14,"DIABP","Diastolic Blood Pressure","STANDING","62","mmHg","62",62,"mmHg","","","",2,5,"WEEK 4","TREATMENT","2013-03-12",37],
[332,"CDISCPILOT01","VS","CDISC005",15,"DIABP","Diastolic Blood Pressure","STANDING","64","mmHg","64",64,"mmHg","","","",3,5,"WEEK 4","TREATMENT","2013-03-12",37],
[333,"CDISCPILOT01","VS","CDISC005",16,"DIABP","Diastolic Blood Pressure","SUPINE","64","mmHg","64",64,"mmHg","","","",1,7,"WEEK 6","TREATMENT","2013-03-19",44],
[334,"CDISCPILOT01","VS","CDISC005",17,"DIABP","Diastolic Blood Pressure","STANDING","54","mmHg","54",54,"mmHg","","","",2,7,"WEEK 6","TREATMENT","2013-03-19",44],
[335,"CDISCPILOT01","VS","CDISC005",18,"DIABP","Diastolic Blood Pressure","STANDING","60","mmHg","60",60,"mmHg","","","",3,7,"WEEK 6","TREATMENT","2013-03-19",44],
[336,"CDISCPILOT01","VS","CDISC005",19,"DIABP","Diastolic Blood Pressure","SUPINE","63","mmHg","63",63,"mmHg","","","",1,8,"WEEK 8","TREATMENT","2013-04-02",58],
[337,"CDISCPILOT01","VS","CDISC005",20,"DIABP","Diastolic Blood Pressure","STANDING","54","mmHg","54",54,"mmHg","","","",2,8,"WEEK 8","TREATMENT","2013-04-02",58],
[338,"CDISCPILOT01","VS","CDISC005",21,"DIABP","Diastolic Blood Pressure","STANDING","61","mmHg","61",61,"mmHg","","","",3,8,"WEEK 8","TREATMENT","2013-04-02",58],
[339,"CDISCPILOT01","VS","CDISC005",22,"DIABP","Diastolic Blood Pressure","SUPINE","56","mmHg","56",56,"mmHg","","","",1,9,"WEEK 12","TREATMENT","2013-04-30",86],
[340,"CDISCPILOT01","VS","CDISC005",23,"DIABP","Diastolic Blood Pressure","STANDING","60","mmHg","60",60,"mmHg","","","",2,9,"WEEK 12","TREATMENT","2013-04-30",86],
[341,"CDISCPILOT01","VS","CDISC005",24,"DIABP","Diastolic Blood Pressure","STANDING","60","mmHg","60",60,"mmHg","","","",3,9,"WEEK 12","TREATMENT","2013-04-30",86],
[342,"CDISCPILOT01","VS","CDISC005",25,"DIABP","Diastolic Blood Pressure","SUPINE","62","mmHg","62",62,"mmHg","","","",1,10,"WEEK 16","TREATMENT","2013-05-30",116],
[343,"CDISCPILOT01","VS","CDISC005",26,"DIABP","Diastolic Blood Pressure","STANDING","60","mmHg","60",60,"mmHg","","","",2,10,"WEEK 16","TREATMENT","2013-05-30",116],
[344,"CDISCPILOT01","VS","CDISC005",27,"DIABP","Diastolic Blood Pressure","STANDING","64","mmHg","64",64,"mmHg","","","",3,10,"WEEK 16","TREATMENT","2013-05-30",116],
[345,"CDISCPILOT01","VS","CDISC005",28,"DIABP","Diastolic Blood Pressure","SUPINE","58","mmHg","58",58,"mmHg","","","",1,11,"WEEK 20","TREATMENT","2013-06-25",142],
[346,"CDISCPILOT01","VS","CDISC005",29,"DIABP","Diastolic Blood Pressure","STANDING","54","mmHg","54",54,"mmHg","","","",2,11,"WEEK 20","TREATMENT","2013-06-25",142],
[347,"CDISCPILOT01","VS","CDISC005",30,"DIABP","Diastolic Blood Pressure","STANDING","66","mmHg","66",66,"mmHg","","","",3,11,"WEEK 20","TREATMENT","2013-06-25",142],
[348,"CDISCPILOT01","VS","CDISC005",31,"DIABP","Diastolic Blood Pressure","SUPINE","68","mmHg","68",68,"mmHg","","","",1,12,"WEEK 24","TREATMENT","2013-07-30",177],
[349,"CDISCPILOT01","VS","CDISC005",32,"DIABP","Diastolic Blood Pressure","STANDING","60","mmHg","60",60,"mmHg","","","",2,12,"WEEK 24","TREATMENT","2013-07-30",177],
[350,"CDISCPILOT01","VS","CDISC005",33,"DIABP","Diastolic Blood Pressure","STANDING","62","mmHg","62",62,"mmHg","","","",3,12,"WEEK 24","TREATMENT","2013-07-30",177],
[351,"CDISCPILOT01","VS","CDISC005",34,"DIABP","Diastolic Blood Pressure","SUPINE","62","mmHg","62",62,"mmHg","","","",1,13,"WEEK 26","TREATMENT","2013-08-06",184],
[352,"CDISCPILOT01","VS","CDISC005",35,"DIABP","Diastolic Blood Pressure","STANDING","56","mmHg","56",56,"mmHg","","","",2,13,"WEEK 26","TREATMENT","2013-08-06",184],
[353,"CDISCPILOT01","VS","CDISC005",36,"DIABP","Diastolic Blood Pressure","STANDING","59","mmHg","59",59,"mmHg","","","",3,13,"WEEK 26","TREATMENT","2013-08-06",184],
[354,"CDISCPILOT01","VS","CDISC005",37,"HEIGHT","Height","","64.5","in","163.83",163.83,"cm","","","",null,1,"SCREENING 1","SCREENING","2013-01-22",-13],
[355,"CDISCPILOT01","VS","CDISC005",38,"PULSE","Pulse Rate","SUPINE","70","beats/min","70",70,"beats/min","","","",1,1,"SCREENING 1","SCREENING","2013-01-22",-13],
[356,"CDISCPILOT01","VS","CDISC005",39,"PULSE","Pulse Rate","STANDING","77","beats/min","77",77,"beats/min","","","",2,1,"SCREENING 1","SCREENING","2013-01-22",-13],
[357,"CDISCPILOT01","VS","CDISC005",40,"PULSE","Pulse Rate","STANDING","80","beats/min","80",80,"beats/min","","","",3,1,"SCREENING 1","SCREENING","2013-01-22",-13],
[358,"CDISCPILOT01","VS","CDISC005",41,"PULSE","Pulse Rate","SUPINE","80","beats/min","80",80,"beats/min","","","",1,2,"SCREENING 2","SCREENING","2013-02-02",-2],
[359,"CDISCPILOT01","VS","CDISC005",42,"PULSE","Pulse Rate","STANDING","89","beats/min","89",89,"beats/min","","","",2,2,"SCREENING 2","SCREENING","2013-02-02",-2],
[360,"CDISCPILOT01","VS","CDISC005",43,"PULSE","Pulse Rate","STANDING","94","beats/min","94",94,"beats/min","","","",3,2,"SCREENING 2","SCREENING","2013-02-02",-2],
[361,"CDISCPILOT01","VS","CDISC005",44,"PULSE","Pulse Rate","SUPINE","77","beats/min","77",77,"beats/min","","","",1,3,"BASELINE","SCREENING","2013-02-04",1],
[362,"CDISCPILOT01","VS","CDISC005",45,"PULSE","Pulse Rate","STANDING","87","beats/min","87",87,"beats/min","","","",2,3,"BASELINE","SCREENING","2013-02-04",1],
[363,"CDISCPILOT01","VS","CDISC005",46,"PULSE","Pulse Rate","STANDING","89","beats/min","89",89,"beats/min","","","Y",3,3,"BASELINE","SCREENING","2013-02-04",1],
[364,"CDISCPILOT01","VS","CDISC005",47,"PULSE","Pulse Rate","SUPINE","84","beats/min","84",84,"beats/min","","","",1,4,"WEEK 2","TREATMENT","2013-02-19",16],
[365,"CDISCPILOT01","VS","CDISC005",48,"PULSE","Pulse Rate","STANDING","88","beats/min","88",88,"beats/min","","","",2,4,"WEEK 2","TREATMENT","2013-02-19",16],
[366,"CDISCPILOT01","VS","CDISC005",49,"PULSE","Pulse Rate","STANDING","88","beats/min","88",88,"beats/min","","","",3,4,"WEEK 2","TREATMENT","2013-02-19",16],
[367,"CDISCPILOT01","VS","CDISC005",50,"PULSE","Pulse Rate","SUPINE","70","beats/min","70",70,"beats/min","","","",1,5,"WEEK 4","TREATMENT","2013-03-12",37],
[368,"CDISCPILOT01","VS","CDISC005",51,"PULSE","Pulse Rate","STANDING","82","beats/min","82",82,"beats/min","","","",2,5,"WEEK 4","TREATMENT","2013-03-12",37],
[369,"CDISCPILOT01","VS","CDISC005",52,"PULSE","Pulse Rate","STANDING","78","beats/min","78",78,"beats/min","","","",3,5,"WEEK 4","TREATMENT","2013-03-12",37],
[370,"CDISCPILOT01","VS","CDISC005",53,"PULSE","Pulse Rate","SUPINE","80","beats/min","80",80,"beats/min","","","",1,7,"WEEK 6","TREATMENT","2013-03-19",44],
[371,"CDISCPILOT01","VS","CDISC005",54,"PULSE","Pulse Rate","STANDING","88","beats/min","88",88,"beats/min","","","",2,7,"WEEK 6","TREATMENT","2013-03-19",44],
[372,"CDISCPILOT01","VS","CDISC005",55,"PULSE","Pulse Rate","STANDING","86","beats/min","86",86,"beats/min","","","",3,7,"WEEK 6","TREATMENT","2013-03-19",44],
[373,"CDISCPILOT01","VS","CDISC005",56,"PULSE","Pulse Rate","SUPINE","70","beats/min","70",70,"beats/min","","","",1,8,"WEEK 8","TREATMENT","2013-04-02",58],
[374,"CDISCPILOT01","VS","CDISC005",57,"PULSE","Pulse Rate","STANDING","86","beats/min","86",86,"beats/min","","","",2,8,"WEEK 8","TREATMENT","2013-04-02",58],
[375,"CDISCPILOT01","VS","CDISC005",58,"PULSE","Pulse Rate","STANDING","81","beats/min","81",81,"beats/min","","","",3,8,"WEEK 8","TREATMENT","2013-04-02",58],
[376,"CDISCPILOT01","VS","CDISC005",59,"PULSE","Pulse Rate","SUPINE","63","beats/min","63",63,"beats/min","","","",1,9,"WEEK 12","TREATMENT","2013-04-30",86],
[377,"CDISCPILOT01","VS","CDISC005",60,"PULSE","Pulse Rate","STANDING","81","beats/min","81",81,"beats/min","","","",2,9,"WEEK 12","TREATMENT","2013-04-30",86],
[378,"CDISCPILOT01","VS","CDISC005",61,"PULSE","Pulse Rate","STANDING","76","beats/min","76",76,"beats/min","","","",3,9,"WEEK 12","TREATMENT","2013-04-30",86],
[379,"CDISCPILOT01","VS","CDISC005",62,"PULSE","Pulse Rate","SUPINE","70","beats/min","70",70,"beats/min","","","",1,10,"WEEK 16","TREATMENT","2013-05-30",116],
[380,"CDISCPILOT01","VS","CDISC005",63,"PULSE","Pulse Rate","STANDING","82","beats/min","82",82,"beats/min","","","",2,10,"WEEK 16","TREATMENT","2013-05-30",116],
[381,"CDISCPILOT01","VS","CDISC005",64,"PULSE","Pulse Rate","STANDING","78","beats/min","78",78,"beats/min","","","",3,10,"WEEK 16","TREATMENT","2013-05-30",116],
[382,"CDISCPILOT01","VS","CDISC005",65,"PULSE","Pulse Rate","SUPINE","73","beats/min","73",73,"beats/min","","","",1,11,"WEEK 20","TREATMENT","2013-06-25",142],
[383,"CDISCPILOT01","VS","CDISC005",66,"PULSE","Pulse Rate","STANDING","86","beats/min","86",86,"beats/min","","","",2,11,"WEEK 20","TREATMENT","2013-06-25",142],
[384,"CDISCPILOT01","VS","CDISC005",67,"PULSE","Pulse Rate","STANDING","85","beats/min","85",85,"beats/min","","","",3,11,"WEEK 20","TREATMENT","2013-06-25",142],
[385,"CDISCPILOT01","VS","CDISC005",68,"PULSE","Pulse Rate","SUPINE","92","beats/min","92",92,"beats/min","","","",1,12,"WEEK 24","TREATMENT","2013-07-30",177],
[386,"CDISCPILOT01","VS","CDISC005",69,"PULSE","Pulse Rate","STANDING","98","beats/min","98",98,"beats/min","","","",2,12,"WEEK 24","TREATMENT","2013-07-30",177],
[387,"CDISCPILOT01","VS","CDISC005",70,"PULSE","Pulse Rate","STANDING","96","beats/min","96",96,"beats/min","","","",3,12,"WEEK 24","TREATMENT","2013-07-30",177],
[388,"CDISCPILOT01","VS","CDISC005",71,"PULSE","Pulse Rate","SUPINE","79","beats/min","79",79,"beats/min","","","",1,13,"WEEK 26","TREATMENT","2013-08-06",184],
[389,"CDISCPILOT01","VS","CDISC005",72,"PULSE","Pulse Rate","STANDING","86","beats/min","86",86,"beats/min","","","",2,13,"WEEK 26","TREATMENT","2013-08-06",184],
[390,"CDISCPILOT01","VS","CDISC005",73,"PULSE","Pulse Rate","STANDING","88","beats/min","88",88,"beats/min","","","",3,13,"WEEK 26","TREATMENT","2013-08-06",184],
[391,"CDISCPILOT01","VS","CDISC005",74,"SYSBP","Systolic Blood Pressure","SUPINE","146","mmHg","146",146,"mmHg","","","",1,1,"SCREENING 1","SCREENING","2013-01-22",-13],
[392,"CDISCPILOT01","VS","CDISC005",75,"SYSBP","Systolic Blood Pressure","STANDING","146","mmHg","146",146,"mmHg","","","",2,1,"SCREENING 1","SCREENING","2013-01-22",-13],
[393,"CDISCPILOT01","VS","CDISC005",76,"SYSBP","Systolic Blood Pressure","STANDING","138","mmHg","138",138,"mmHg","","","",3,1,"SCREENING 1","SCREENING","2013-01-22",-13],
[394,"CDISCPILOT01","VS","CDISC005",77,"SYSBP","Systolic Blood Pressure","SUPINE","129","mmHg","129",129,"mmHg","","","",1,2,"SCREENING 2","SCREENING","2013-02-02",-2],
[395,"CDISCPILOT01","VS","CDISC005",78,"SYSBP","Systolic Blood Pressure","STANDING","136","mmHg","136",136,"mmHg","","","",2,2,"SCREENING 2","SCREENING","2013-02-02",-2],
[396,"CDISCPILOT01","VS","CDISC005",79,"SYSBP","Systolic Blood Pressure","STANDING","131","mmHg","131",131,"mmHg","","","",3,2,"SCREENING 2","SCREENING","2013-02-02",-2],
[397,"CDISCPILOT01","VS","CDISC005",80,"SYSBP","Systolic Blood Pressure","SUPINE","137","mmHg","137",137,"mmHg","","","",1,3,"BASELINE","SCREENING","2013-02-04",1],
[398,"CDISCPILOT01","VS","CDISC005",81,"SYSBP","Systolic Blood Pressure","STANDING","138","mmHg","138",138,"mmHg","","","",2,3,"BASELINE","SCREENING","2013-02-04",1],
[399,"CDISCPILOT01","VS","CDISC005",82,"SYSBP","Systolic Blood Pressure","STANDING","131","mmHg","131",131,"mmHg","","","Y",3,3,"BASELINE","SCREENING","2013-02-04",1],
[400,"CDISCPILOT01","VS","CDISC005",83,"SYSBP","Systolic Blood Pressure","SUPINE","138","mmHg","138",138,"mmHg","","","",1,4,"WEEK 2","TREATMENT","2013-02-19",16],
[401,"CDISCPILOT01","VS","CDISC005",84,"SYSBP","Systolic Blood Pressure","STANDING","130","mmHg","130",130,"mmHg","","","",2,4,"WEEK 2","TREATMENT","2013-02-19",16],
[402,"CDISCPILOT01","VS","CDISC005",85,"SYSBP","Systolic Blood Pressure","STANDING","138","mmHg","138",138,"mmHg","","","",3,4,"WEEK 2","TREATMENT","2013-02-19",16],
[403,"CDISCPILOT01","VS","CDISC005",86,"SYSBP","Systolic Blood Pressure","SUPINE","132","mmHg","132",132,"mmHg","","","",1,5,"WEEK 4","TREATMENT","2013-03-12",37],
[404,"CDISCPILOT01","VS","CDISC005",87,"SYSBP","Systolic Blood Pressure","STANDING","117","mmHg","117",117,"mmHg","","","",2,5,"WEEK 4","TREATMENT","2013-03-12",37],
[405,"CDISCPILOT01","VS","CDISC005",88,"SYSBP","Systolic Blood Pressure","STANDING","138","mmHg","138",138,"mmHg","","","",3,5,"WEEK 4","TREATMENT","2013-03-12",37],
[406,"CDISCPILOT01","VS","CDISC005",89,"SYSBP","Systolic Blood Pressure","SUPINE","129","mmHg","129",129,"mmHg","","","",1,7,"WEEK 6","TREATMENT","2013-03-19",44],
[407,"CDISCPILOT01","VS","CDISC005",90,"SYSBP","Systolic Blood Pressure","STANDING","129","mmHg","129",129,"mmHg","","","",2,7,"WEEK 6","TREATMENT","2013-03-19",44],
[408,"CDISCPILOT01","VS","CDISC005",91,"SYSBP","Systolic Blood Pressure","STANDING","129","mmHg","129",129,"mmHg","","","",3,7,"WEEK 6","TREATMENT","2013-03-19",44],
[409,"CDISCPILOT01","VS","CDISC005",92,"SYSBP","Systolic Blood Pressure","SUPINE","144","mmHg","144",144,"mmHg","","","",1,8,"WEEK 8","TREATMENT","2013-04-02",58],
[410,"CDISCPILOT01","VS","CDISC005",93,"SYSBP","Systolic Blood Pressure","STANDING","137","mmHg","137",137,"mmHg","","","",2,8,"WEEK 8","TREATMENT","2013-04-02",58],
[411,"CDISCPILOT01","VS","CDISC005",94,"SYSBP","Systolic Blood Pressure","STANDING","138","mmHg","138",138,"mmHg","","","",3,8,"WEEK 8","TREATMENT","2013-04-02",58],
[412,"CDISCPILOT01","VS","CDISC005",95,"SYSBP","Systolic Blood Pressure","SUPINE","114","mmHg","114",114,"mmHg","","","",1,9,"WEEK 12","TREATMENT","2013-04-30",86],
[413,"CDISCPILOT01","VS","CDISC005",96,"SYSBP","Systolic Blood Pressure","STANDING","122","mmHg","122",122,"mmHg","","","",2,9,"WEEK 12","TREATMENT","2013-04-30",86],
[414,"CDISCPILOT01","VS","CDISC005",97,"SYSBP","Systolic Blood Pressure","STANDING","122","mmHg","122",122,"mmHg","","","",3,9,"WEEK 12","TREATMENT","2013-04-30",86],
[415,"CDISCPILOT01","VS","CDISC005",98,"SYSBP","Systolic Blood Pressure","SUPINE","138","mmHg","138",138,"mmHg","","","",1,10,"WEEK 16","TREATMENT","2013-05-30",116],
[416,"CDISCPILOT01","VS","CDISC005",99,"SYSBP","Systolic Blood Pressure","STANDING","130","mmHg","130",130,"mmHg","","","",2,10,"WEEK 16","TREATMENT","2013-05-30",116],
[417,"CDISCPILOT01","VS","CDISC005",100,"SYSBP","Systolic Blood Pressure","STANDING","140","mmHg","140",140,"mmHg","","","",3,10,"WEEK 16","TREATMENT","2013-05-30",116],
[418,"CDISCPILOT01","VS","CDISC005",101,"SYSBP","Systolic Blood Pressure","SUPINE","131","mmHg","131",131,"mmHg","","","",1,11,"WEEK 20","TREATMENT","2013-06-25",142],
[419,"CDISCPILOT01","VS","CDISC005",102,"SYSBP","Systolic Blood Pressure","STANDING","139","mmHg","139",139,"mmHg","","","",2,11,"WEEK 20","TREATMENT","2013-06-25",142],
[420,"CDISCPILOT01","VS","CDISC005",103,"SYSBP","Systolic Blood Pressure","STANDING","132","mmHg","132",132,"mmHg","","","",3,11,"WEEK 20","TREATMENT","2013-06-25",142],
[421,"CDISCPILOT01","VS","CDISC005",104,"SYSBP","Systolic Blood Pressure","SUPINE","142","mmHg","142",142,"mmHg","","","",1,12,"WEEK 24","TREATMENT","2013-07-30",177],
[422,"CDISCPILOT01","VS","CDISC005",105,"SYSBP","Systolic Blood Pressure","STANDING","128","mmHg","128",128,"mmHg","","","",2,12,"WEEK 24","TREATMENT","2013-07-30",177],
[423,"CDISCPILOT01","VS","CDISC005",106,"SYSBP","Systolic Blood Pressure","STANDING","132","mmHg","132",132,"mmHg","","","",3,12,"WEEK 24","TREATMENT","2013-07-30",177],
[424,"CDISCPILOT01","VS","CDISC005",107,"SYSBP","Systolic Blood Pressure","SUPINE","130","mmHg","130",130,"mmHg","","","",1,13,"WEEK 26","TREATMENT","2013-08-06",184],
[425,"CDISCPILOT01","VS","CDISC005",108,"SYSBP","Systolic Blood Pressure","STANDING","115","mmHg","115",115,"mmHg","","","",2,13,"WEEK 26","TREATMENT","2013-08-06",184],
[426,"CDISCPILOT01","VS","CDISC005",109,"SYSBP","Systolic Blood Pressure","STANDING","123","mmHg","123",123,"mmHg","","","",3,13,"WEEK 26","TREATMENT","2013-08-06",184],
[427,"CDISCPILOT01","VS","CDISC005",110,"TEMP","Temperature","","97.3","F","36.28",36.28,"C","","ORAL CAVITY","",null,1,"SCREENING 1","SCREENING","2013-01-22",-13],
[428,"CDISCPILOT01","VS","CDISC005",111,"TEMP","Temperature","","98.2","F","36.78",36.78,"C","","ORAL CAVITY","",null,2,"SCREENING 2","SCREENING","2013-02-02",-2],
[429,"CDISCPILOT01","VS","CDISC005",112,"TEMP","Temperature","","97.7","F","36.5",36.5,"C","","ORAL CAVITY","",null,3,"BASELINE","SCREENING","2013-02-04",1],
[430,"CDISCPILOT01","VS","CDISC005",113,"TEMP","Temperature","","98.2","F","36.78",36.78,"C","","ORAL CAVITY","",null,4,"WEEK 2","TREATMENT","2013-02-19",16],
[431,"CDISCPILOT01","VS","CDISC005",114,"TEMP","Temperature","","98.0","F","36.67",36.67,"C","","ORAL CAVITY","",null,5,"WEEK 4","TREATMENT","2013-03-12",37],
[432,"CDISCPILOT01","VS","CDISC005",115,"TEMP","Temperature","","98.2","F","36.78",36.78,"C","","ORAL CAVITY","",null,7,"WEEK 6","TREATMENT","2013-03-19",44],
[433,"CDISCPILOT01","VS","CDISC005",116,"TEMP","Temperature","","97.5","F","36.39",36.39,"C","","ORAL CAVITY","",null,8,"WEEK 8","TREATMENT","2013-04-02",58],
[434,"CDISCPILOT01","VS","CDISC005",117,"TEMP","Temperature","","98.5","F","36.94",36.94,"C","","ORAL CAVITY","",null,9,"WEEK 12","TREATMENT","2013-04-30",86],
[435,"CDISCPILOT01","VS","CDISC005",118,"TEMP","Temperature","","97.5","F","36.39",36.39,"C","","ORAL CAVITY","",null,10,"WEEK 16","TREATMENT","2013-05-30",116],
[436,"CDISCPILOT01","VS","CDISC005",119,"TEMP","Temperature","","98.0","F","36.67",36.67,"C","","ORAL CAVITY","",null,11,"WEEK 20","TREATMENT","2013-06-25",142],
[437,"CDISCPILOT01","VS","CDISC005",120,"TEMP","Temperature","","97.6","F","36.44",36.44,"C","","ORAL CAVITY","",null,12,"WEEK 24","TREATMENT","2013-07-30",177],
[438,"CDISCPILOT01","VS","CDISC005",121,"TEMP","Temperature","","97.5","F","36.39",36.39,"C","","ORAL CAVITY","",null,13,"WEEK 26","TREATMENT","2013-08-06",184],
[439,"CDISCPILOT01","VS","CDISC005",122,"WEIGHT","Weight","","187.0","LB","84.82",84.82,"kg","","","",null,1,"SCREENING 1","SCREENING","2013-01-22",-13],
[440,"CDISCPILOT01","VS","CDISC005",123,"WEIGHT","Weight","","187.0","LB","84.82",84.82,"kg","","","",null,3,"BASELINE","SCREENING","2013-02-04",1],
[441,"CDISCPILOT01","VS","CDISC005",124,"WEIGHT","Weight","","190.0","LB","86.18",86.18,"kg","","","",null,4,"WEEK 2","TREATMENT","2013-02-19",16],
[442,"CDISCPILOT01","VS","CDISC005",125,"WEIGHT","Weight","","188.0","LB","85.28",85.28,"kg","","","",null,5,"WEEK 4","TREATMENT","2013-03-12",37],
[443,"CDISCPILOT01","VS","CDISC005",126,"WEIGHT","Weight","","188.0","LB","85.28",85.28,"kg","","","",null,7,"WEEK 6","TREATMENT","2013-03-19",44],
[444,"CDISCPILOT01","VS","CDISC005",127,"WEIGHT","Weight","","188.0","LB","85.28",85.28,"kg","","","",null,8,"WEEK 8","TREATMENT","2013-04-02",58],
[445,"CDISCPILOT01","VS","CDISC005",128,"WEIGHT","Weight","","186.0","LB","84.37",84.37,"kg","","","",null,9,"WEEK 12","TREATMENT","2013-04-30",86],
[446,"CDISCPILOT01","VS","CDISC005",129,"WEIGHT","Weight","","187.0","LB","84.82",84.82,"kg","","","",null,10,"WEEK 16","TREATMENT","2013-05-30",116],
[447,"CDISCPILOT01","VS","CDISC005",130,"WEIGHT","Weight","","186.0","LB","84.37",84.37,"kg","","","",null,11,"WEEK 20","TREATMENT","2013-06-25",142],
[448,"CDISCPILOT01","VS","CDISC005",131,"WEIGHT","Weight","","183.0","LB","83.01",83.01,"kg","","","",null,12,"WEEK 24","TREATMENT","2013-07-30",177],
[449,"CDISCPILOT01","VS","CDISC005",132,"WEIGHT","Weight","","183.0","LB","83.01",83.01,"kg","","","",null,13,"WEEK 26","TREATMENT","2013-08-06",184],
[450,"CDISCPILOT01","VS","CDISC006",1,"DIABP","Diastolic Blood Pressure","SUPINE","88","mmHg","88",88,"mmHg","","","",1,1,"SCREENING 1","SCREENING","2013-02-25",-22],
[451,"CDISCPILOT01","VS","CDISC006",2,"DIABP","Diastolic Blood Pressure","STANDING","90","mmHg","90",90,"mmHg","","","",2,1,"SCREENING 1","SCREENING","2013-02-25",-22],
[452,"CDISCPILOT01","VS","CDISC006",3,"DIABP","Diastolic Blood Pressure","STANDING","90","mmHg","90",90,"mmHg","","","",3,1,"SCREENING 1","SCREENING","2013-02-25",-22],
[453,"CDISCPILOT01","VS","CDISC006",4,"DIABP","Diastolic Blood Pressure","SUPINE","66","mmHg","66",66,"mmHg","","","",1,2,"SCREENING 2","SCREENING","2013-03-17",-2],
[454,"CDISCPILOT01","VS","CDISC006",5,"DIABP","Diastolic Blood Pressure","STANDING","88","mmHg","88",88,"mmHg","","","",2,2,"SCREENING 2","SCREENING","2013-03-17",-2],
[455,"CDISCPILOT01","VS","CDISC006",6,"DIABP","Diastolic Blood Pressure","STANDING","70","mmHg","70",70,"mmHg","","","",3,2,"SCREENING 2","SCREENING","2013-03-17",-2],
[456,"CDISCPILOT01","VS","CDISC006",7,"DIABP","Diastolic Blood Pressure","SUPINE","72","mmHg","72",72,"mmHg","","","",1,3,"BASELINE","SCREENING","2013-03-19",1],
[457,"CDISCPILOT01","VS","CDISC006",8,"DIABP","Diastolic Blood Pressure","STANDING","80","mmHg","80",80,"mmHg","","","",2,3,"BASELINE","SCREENING","2013-03-19",1],
[458,"CDISCPILOT01","VS","CDISC006",9,"DIABP","Diastolic Blood Pressure","STANDING","76","mmHg","76",76,"mmHg","","","Y",3,3,"BASELINE","SCREENING","2013-03-19",1],
[459,"CDISCPILOT01","VS","CDISC006",10,"DIABP","Diastolic Blood Pressure","SUPINE","70","mmHg","70",70,"mmHg","","","",1,4,"WEEK 2","TREATMENT","2013-04-02",15],
[460,"CDISCPILOT01","VS","CDISC006",11,"DIABP","Diastolic Blood Pressure","STANDING","86","mmHg","86",86,"mmHg","","","",2,4,"WEEK 2","TREATMENT","2013-04-02",15],
[461,"CDISCPILOT01","VS","CDISC006",12,"DIABP","Diastolic Blood Pressure","STANDING","81","mmHg","81",81,"mmHg","","","",3,4,"WEEK 2","TREATMENT","2013-04-02",15],
[462,"CDISCPILOT01","VS","CDISC006",13,"DIABP","Diastolic Blood Pressure","SUPINE","69","mmHg","69",69,"mmHg","","","",1,5,"WEEK 4","TREATMENT","2013-04-16",29],
[463,"CDISCPILOT01","VS","CDISC006",14,"DIABP","Diastolic Blood Pressure","STANDING","78","mmHg","78",78,"mmHg","","","",2,5,"WEEK 4","TREATMENT","2013-04-16",29],
[464,"CDISCPILOT01","VS","CDISC006",15,"DIABP","Diastolic Blood Pressure","STANDING","84","mmHg","84",84,"mmHg","","","",3,5,"WEEK 4","TREATMENT","2013-04-16",29],
[465,"CDISCPILOT01","VS","CDISC006",16,"DIABP","Diastolic Blood Pressure","SUPINE","78","mmHg","78",78,"mmHg","","","",1,7,"WEEK 6","TREATMENT","2013-04-30",43],
[466,"CDISCPILOT01","VS","CDISC006",17,"DIABP","Diastolic Blood Pressure","STANDING","78","mmHg","78",78,"mmHg","","","",2,7,"WEEK 6","TREATMENT","2013-04-30",43],
[467,"CDISCPILOT01","VS","CDISC006",18,"DIABP","Diastolic Blood Pressure","STANDING","75","mmHg","75",75,"mmHg","","","",3,7,"WEEK 6","TREATMENT","2013-04-30",43],
[468,"CDISCPILOT01","VS","CDISC006",19,"HEIGHT","Height","","58.5","in","148.59",148.59,"cm","","","",null,1,"SCREENING 1","SCREENING","2013-02-25",-22],
[469,"CDISCPILOT01","VS","CDISC006",20,"PULSE","Pulse Rate","SUPINE","78","beats/min","78",78,"beats/min","","","",1,1,"SCREENING 1","SCREENING","2013-02-25",-22],
[470,"CDISCPILOT01","VS","CDISC006",21,"PULSE","Pulse Rate","STANDING","80","beats/min","80",80,"beats/min","","","",2,1,"SCREENING 1","SCREENING","2013-02-25",-22],
[471,"CDISCPILOT01","VS","CDISC006",22,"PULSE","Pulse Rate","STANDING","82","beats/min","82",82,"beats/min","","","",3,1,"SCREENING 1","SCREENING","2013-02-25",-22],
[472,"CDISCPILOT01","VS","CDISC006",23,"PULSE","Pulse Rate","SUPINE","76","beats/min","76",76,"beats/min","","","",1,2,"SCREENING 2","SCREENING","2013-03-17",-2],
[473,"CDISCPILOT01","VS","CDISC006",24,"PULSE","Pulse Rate","STANDING","70","beats/min","70",70,"beats/min","","","",2,2,"SCREENING 2","SCREENING","2013-03-17",-2],
[474,"CDISCPILOT01","VS","CDISC006",25,"PULSE","Pulse Rate","STANDING","76","beats/min","76",76,"beats/min","","","",3,2,"SCREENING 2","SCREENING","2013-03-17",-2],
[475,"CDISCPILOT01","VS","CDISC006",26,"PULSE","Pulse Rate","SUPINE","68","beats/min","68",68,"beats/min","","","",1,3,"BASELINE","SCREENING","2013-03-19",1],
[476,"CDISCPILOT01","VS","CDISC006",27,"PULSE","Pulse Rate","STANDING","75","beats/min","75",75,"beats/min","","","",2,3,"BASELINE","SCREENING","2013-03-19",1],
[477,"CDISCPILOT01","VS","CDISC006",28,"PULSE","Pulse Rate","STANDING","72","beats/min","72",72,"beats/min","","","Y",3,3,"BASELINE","SCREENING","2013-03-19",1],
[478,"CDISCPILOT01","VS","CDISC006",29,"PULSE","Pulse Rate","SUPINE","74","beats/min","74",74,"beats/min","","","",1,4,"WEEK 2","TREATMENT","2013-04-02",15],
[479,"CDISCPILOT01","VS","CDISC006",30,"PULSE","Pulse Rate","STANDING","76","beats/min","76",76,"beats/min","","","",2,4,"WEEK 2","TREATMENT","2013-04-02",15],
[480,"CDISCPILOT01","VS","CDISC006",31,"PULSE","Pulse Rate","STANDING","76","beats/min","76",76,"beats/min","","","",3,4,"WEEK 2","TREATMENT","2013-04-02",15],
[481,"CDISCPILOT01","VS","CDISC006",32,"PULSE","Pulse Rate","SUPINE","77","beats/min","77",77,"beats/min","","","",1,5,"WEEK 4","TREATMENT","2013-04-16",29],
[482,"CDISCPILOT01","VS","CDISC006",33,"PULSE","Pulse Rate","STANDING","85","beats/min","85",85,"beats/min","","","",2,5,"WEEK 4","TREATMENT","2013-04-16",29],
[483,"CDISCPILOT01","VS","CDISC006",34,"PULSE","Pulse Rate","STANDING","88","beats/min","88",88,"beats/min","","","",3,5,"WEEK 4","TREATMENT","2013-04-16",29],
[484,"CDISCPILOT01","VS","CDISC006",35,"PULSE","Pulse Rate","SUPINE","73","beats/min","73",73,"beats/min","","","",1,7,"WEEK 6","TREATMENT","2013-04-30",43],
[485,"CDISCPILOT01","VS","CDISC006",36,"PULSE","Pulse Rate","STANDING","80","beats/min","80",80,"beats/min","","","",2,7,"WEEK 6","TREATMENT","2013-04-30",43],
[486,"CDISCPILOT01","VS","CDISC006",37,"PULSE","Pulse Rate","STANDING","76","beats/min","76",76,"beats/min","","","",3,7,"WEEK 6","TREATMENT","2013-04-30",43],
[487,"CDISCPILOT01","VS","CDISC006",38,"SYSBP","Systolic Blood Pressure","SUPINE","158","mmHg","158",158,"mmHg","","","",1,1,"SCREENING 1","SCREENING","2013-02-25",-22],
[488,"CDISCPILOT01","VS","CDISC006",39,"SYSBP","Systolic Blood Pressure","STANDING","160","mmHg","160",160,"mmHg","","","",2,1,"SCREENING 1","SCREENING","2013-02-25",-22],
[489,"CDISCPILOT01","VS","CDISC006",40,"SYSBP","Systolic Blood Pressure","STANDING","152","mmHg","152",152,"mmHg","","","",3,1,"SCREENING 1","SCREENING","2013-02-25",-22],
[490,"CDISCPILOT01","VS","CDISC006",41,"SYSBP","Systolic Blood Pressure","SUPINE","186","mmHg","186",186,"mmHg","","","",1,2,"SCREENING 2","SCREENING","2013-03-17",-2],
[491,"CDISCPILOT01","VS","CDISC006",42,"SYSBP","Systolic Blood Pressure","STANDING","181","mmHg","181",181,"mmHg","","","",2,2,"SCREENING 2","SCREENING","2013-03-17",-2],
[492,"CDISCPILOT01","VS","CDISC006",43,"SYSBP","Systolic Blood Pressure","STANDING","158","mmHg","158",158,"mmHg","","","",3,2,"SCREENING 2","SCREENING","2013-03-17",-2],
[493,"CDISCPILOT01","VS","CDISC006",44,"SYSBP","Systolic Blood Pressure","SUPINE","178","mmHg","178",178,"mmHg","","","",1,3,"BASELINE","SCREENING","2013-03-19",1],
[494,"CDISCPILOT01","VS","CDISC006",45,"SYSBP","Systolic Blood Pressure","STANDING","186","mmHg","186",186,"mmHg","","","",2,3,"BASELINE","SCREENING","2013-03-19",1],
[495,"CDISCPILOT01","VS","CDISC006",46,"SYSBP","Systolic Blood Pressure","STANDING","180","mmHg","180",180,"mmHg","","","Y",3,3,"BASELINE","SCREENING","2013-03-19",1],
[496,"CDISCPILOT01","VS","CDISC006",47,"SYSBP","Systolic Blood Pressure","SUPINE","168","mmHg","168",168,"mmHg","","","",1,4,"WEEK 2","TREATMENT","2013-04-02",15],
[497,"CDISCPILOT01","VS","CDISC006",48,"SYSBP","Systolic Blood Pressure","STANDING","178","mmHg","178",178,"mmHg","","","",2,4,"WEEK 2","TREATMENT","2013-04-02",15],
[498,"CDISCPILOT01","VS","CDISC006",49,"SYSBP","Systolic Blood Pressure","STANDING","174","mmHg","174",174,"mmHg","","","",3,4,"WEEK 2","TREATMENT","2013-04-02",15],
[499,"CDISCPILOT01","VS","CDISC006",50,"SYSBP","Systolic Blood Pressure","SUPINE","172","mmHg","172",172,"mmHg","","","",1,5,"WEEK 4","TREATMENT","2013-04-16",29],
[500,"CDISCPILOT01","VS","CDISC006",51,"SYSBP","Systolic Blood Pressure","STANDING","164","mmHg","164",164,"mmHg","","","",2,5,"WEEK 4","TREATMENT","2013-04-16",29],
[501,"CDISCPILOT01","VS","CDISC006",52,"SYSBP","Systolic Blood Pressure","STANDING","178","mmHg","178",178,"mmHg","","","",3,5,"WEEK 4","TREATMENT","2013-04-16",29],
[502,"CDISCPILOT01","VS","CDISC006",53,"SYSBP","Systolic Blood Pressure","SUPINE","160","mmHg","160",160,"mmHg","","","",1,7,"WEEK 6","TREATMENT","2013-04-30",43],
[503,"CDISCPILOT01","VS","CDISC006",54,"SYSBP","Systolic Blood Pressure","STANDING","178","mmHg","178",178,"mmHg","","","",2,7,"WEEK 6","TREATMENT","2013-04-30",43],
[504,"CDISCPILOT01","VS","CDISC006",55,"SYSBP","Systolic Blood Pressure","STANDING","170","mmHg","170",170,"mmHg","","","",3,7,"WEEK 6","TREATMENT","2013-04-30",43],
[505,"CDISCPILOT01","VS","CDISC006",56,"TEMP","Temperature","","96.8","F","36",36,"C","","ORAL CAVITY","",null,1,"SCREENING 1","SCREENING","2013-02-25",-22],
[506,"CDISCPILOT01","VS","CDISC006",57,"TEMP","Temperature","","98.6","F","37",37,"C","","ORAL CAVITY","",null,2,"SCREENING 2","SCREENING","2013-03-17",-2],
[507,"CDISCPILOT01","VS","CDISC006",58,"TEMP","Temperature","","98.5","F","36.94",36.94,"C","","ORAL CAVITY","",null,3,"BASELINE","SCREENING","2013-03-19",1],
[508,"CDISCPILOT01","VS","CDISC006",59,"TEMP","Temperature","","98.5","F","36.94",36.94,"C","","ORAL CAVITY","",null,4,"WEEK 2","TREATMENT","2013-04-02",15],
[509,"CDISCPILOT01","VS","CDISC006",60,"TEMP","Temperature","","97.6","F","36.44",36.44,"C","","ORAL CAVITY","",null,5,"WEEK 4","TREATMENT","2013-04-16",29],
[510,"CDISCPILOT01","VS","CDISC006",61,"TEMP","Temperature","","98.2","F","36.78",36.78,"C","","ORAL CAVITY","",null,7,"WEEK 6","TREATMENT","2013-04-30",43],
[511,"CDISCPILOT01","VS","CDISC006",62,"WEIGHT","Weight","","125.0","LB","56.7",56.7,"kg","","","",null,1,"SCREENING 1","SCREENING","2013-02-25",-22],
[512,"CDISCPILOT01","VS","CDISC006",63,"WEIGHT","Weight","","125.0","LB","56.7",56.7,"kg","","","",null,3,"BASELINE","SCREENING","2013-03-19",1],
[513,"CDISCPILOT01","VS","CDISC006",64,"WEIGHT","Weight","","125.0","LB","56.7",56.7,"kg","","","",null,4,"WEEK 2","TREATMENT","2013-04-02",15],
[514,"CDISCPILOT01","VS","CDISC006",65,"WEIGHT","Weight","","126.0","LB","57.15",57.15,"kg","","","",null,5,"WEEK 4","TREATMENT","2013-04-16",29],
[515,"CDISCPILOT01","VS","CDISC006",66,"WEIGHT","Weight","","126.0","LB","57.15",57.15,"kg","","","",null,7,"WEEK 6","TREATMENT","2013-04-30",43],
[516,"CDISCPILOT01","VS","CDISC007",1,"DIABP","Diastolic Blood Pressure","STANDING","92","mmHg","92",92,"mmHg","","","",null,1,"SCREENING 1","SCREENING","2012-12-31",-5],
[517,"CDISCPILOT01","VS","CDISC007",2,"DIABP","Diastolic Blood Pressure","SUPINE","83","mmHg","83",83,"mmHg","","","",1,2,"SCREENING 2","SCREENING","2013-01-03",-2],
[518,"CDISCPILOT01","VS","CDISC007",3,"DIABP","Diastolic Blood Pressure","STANDING","78","mmHg","78",78,"mmHg","","","",2,2,"SCREENING 2","SCREENING","2013-01-03",-2],
[519,"CDISCPILOT01","VS","CDISC007",4,"DIABP","Diastolic Blood Pressure","STANDING","77","mmHg","77",77,"mmHg","","","",3,2,"SCREENING 2","SCREENING","2013-01-03",-2],
[520,"CDISCPILOT01","VS","CDISC007",5,"DIABP","Diastolic Blood Pressure","SUPINE","89","mmHg","89",89,"mmHg","","","",1,3,"BASELINE","SCREENING","2013-01-05",1],
[521,"CDISCPILOT01","VS","CDISC007",6,"DIABP","Diastolic Blood Pressure","STANDING","84","mmHg","84",84,"mmHg","","","",2,3,"BASELINE","SCREENING","2013-01-05",1],
[522,"CDISCPILOT01","VS","CDISC007",7,"DIABP","Diastolic Blood Pressure","STANDING","76","mmHg","76",76,"mmHg","","","Y",3,3,"BASELINE","SCREENING","2013-01-05",1],
[523,"CDISCPILOT01","VS","CDISC007",8,"DIABP","Diastolic Blood Pressure","SUPINE","88","mmHg","88",88,"mmHg","","","",1,4,"WEEK 2","TREATMENT","2013-01-18",14],
[524,"CDISCPILOT01","VS","CDISC007",9,"DIABP","Diastolic Blood Pressure","STANDING","81","mmHg","81",81,"mmHg","","","",2,4,"WEEK 2","TREATMENT","2013-01-18",14],
[525,"CDISCPILOT01","VS","CDISC007",10,"DIABP","Diastolic Blood Pressure","STANDING","82","mmHg","82",82,"mmHg","","","",3,4,"WEEK 2","TREATMENT","2013-01-18",14],
[526,"CDISCPILOT01","VS","CDISC007",11,"DIABP","Diastolic Blood Pressure","SUPINE","87","mmHg","87",87,"mmHg","","","",1,5,"WEEK 4","TREATMENT","2013-01-31",27],
[527,"CDISCPILOT01","VS","CDISC007",12,"DIABP","Diastolic Blood Pressure","STANDING","79","mmHg","79",79,"mmHg","","","",2,5,"WEEK 4","TREATMENT","2013-01-31",27],
[528,"CDISCPILOT01","VS","CDISC007",13,"DIABP","Diastolic Blood Pressure","STANDING","84","mmHg","84",84,"mmHg","","","",3,5,"WEEK 4","TREATMENT","2013-01-31",27],
[529,"CDISCPILOT01","VS","CDISC007",14,"DIABP","Diastolic Blood Pressure","SUPINE","82","mmHg","82",82,"mmHg","","","",1,7,"WEEK 6","TREATMENT","2013-02-13",40],
[530,"CDISCPILOT01","VS","CDISC007",15,"DIABP","Diastolic Blood Pressure","STANDING","84","mmHg","84",84,"mmHg","","","",2,7,"WEEK 6","TREATMENT","2013-02-13",40],
[531,"CDISCPILOT01","VS","CDISC007",16,"DIABP","Diastolic Blood Pressure","STANDING","85","mmHg","85",85,"mmHg","","","",3,7,"WEEK 6","TREATMENT","2013-02-13",40],
[532,"CDISCPILOT01","VS","CDISC007",17,"DIABP","Diastolic Blood Pressure","SUPINE","84","mmHg","84",84,"mmHg","","","",1,201,"EARLY DISCONTINUATION RETRIEVAL","TREATMENT","2013-06-20",167],
[533,"CDISCPILOT01","VS","CDISC007",18,"DIABP","Diastolic Blood Pressure","STANDING","70","mmHg","70",70,"mmHg","","","",2,201,"EARLY DISCONTINUATION RETRIEVAL","TREATMENT","2013-06-20",167],
[534,"CDISCPILOT01","VS","CDISC007",19,"DIABP","Diastolic Blood Pressure","STANDING","74","mmHg","74",74,"mmHg","","","",3,201,"EARLY DISCONTINUATION RETRIEVAL","TREATMENT","2013-06-20",167],
[535,"CDISCPILOT01","VS","CDISC007",20,"HEIGHT","Height","STANDING","67.5","in","171.45",171.45,"cm","","","",null,1,"SCREENING 1","SCREENING","2012-12-31",-5],
[536,"CDISCPILOT01","VS","CDISC007",21,"PULSE","Pulse Rate","STANDING","56","beats/min","56",56,"beats/min","","","",null,1,"SCREENING 1","SCREENING","2012-12-31",-5],
[537,"CDISCPILOT01","VS","CDISC007",22,"PULSE","Pulse Rate","SUPINE","65","beats/min","65",65,"beats/min","","","",1,2,"SCREENING 2","SCREENING","2013-01-03",-2],
[538,"CDISCPILOT01","VS","CDISC007",23,"PULSE","Pulse Rate","STANDING","65","beats/min","65",65,"beats/min","","","",2,2,"SCREENING 2","SCREENING","2013-01-03",-2],
[539,"CDISCPILOT01","VS","CDISC007",24,"PULSE","Pulse Rate","STANDING","65","beats/min","65",65,"beats/min","","","",3,2,"SCREENING 2","SCREENING","2013-01-03",-2],
[540,"CDISCPILOT01","VS","CDISC007",25,"PULSE","Pulse Rate","SUPINE","64","beats/min","64",64,"beats/min","","","",1,3,"BASELINE","SCREENING","2013-01-05",1],
[541,"CDISCPILOT01","VS","CDISC007",26,"PULSE","Pulse Rate","STANDING","72","beats/min","72",72,"beats/min","","","",2,3,"BASELINE","SCREENING","2013-01-05",1],
[542,"CDISCPILOT01","VS","CDISC007",27,"PULSE","Pulse Rate","STANDING","68","beats/min","68",68,"beats/min","","","Y",3,3,"BASELINE","SCREENING","2013-01-05",1],
[543,"CDISCPILOT01","VS","CDISC007",28,"PULSE","Pulse Rate","SUPINE","65","beats/min","65",65,"beats/min","","","",1,4,"WEEK 2","TREATMENT","2013-01-18",14],
[544,"CDISCPILOT01","VS","CDISC007",29,"PULSE","Pulse Rate","STANDING","64","beats/min","64",64,"beats/min","","","",2,4,"WEEK 2","TREATMENT","2013-01-18",14],
[545,"CDISCPILOT01","VS","CDISC007",30,"PULSE","Pulse Rate","STANDING","64","beats/min","64",64,"beats/min","","","",3,4,"WEEK 2","TREATMENT","2013-01-18",14],
[546,"CDISCPILOT01","VS","CDISC007",31,"PULSE","Pulse Rate","SUPINE","62","beats/min","62",62,"beats/min","","","",1,5,"WEEK 4","TREATMENT","2013-01-31",27],
[547,"CDISCPILOT01","VS","CDISC007",32,"PULSE","Pulse Rate","STANDING","65","beats/min","65",65,"beats/min","","","",2,5,"WEEK 4","TREATMENT","2013-01-31",27],
[548,"CDISCPILOT01","VS","CDISC007",33,"PULSE","Pulse Rate","STANDING","62","beats/min","62",62,"beats/min","","","",3,5,"WEEK 4","TREATMENT","2013-01-31",27],
[549,"CDISCPILOT01","VS","CDISC007",34,"PULSE","Pulse Rate","SUPINE","60","beats/min","60",60,"beats/min","","","",1,7,"WEEK 6","TREATMENT","2013-02-13",40],
[550,"CDISCPILOT01","VS","CDISC007",35,"PULSE","Pulse Rate","STANDING","65","beats/min","65",65,"beats/min","","","",2,7,"WEEK 6","TREATMENT","2013-02-13",40],
[551,"CDISCPILOT01","VS","CDISC007",36,"PULSE","Pulse Rate","STANDING","65","beats/min","65",65,"beats/min","","","",3,7,"WEEK 6","TREATMENT","2013-02-13",40],
[552,"CDISCPILOT01","VS","CDISC007",37,"PULSE","Pulse Rate","SUPINE","66","beats/min","66",66,"beats/min","","","",1,201,"EARLY DISCONTINUATION RETRIEVAL","TREATMENT","2013-06-20",167],
[553,"CDISCPILOT01","VS","CDISC007",38,"PULSE","Pulse Rate","STANDING","73","beats/min","73",73,"beats/min","","","",2,201,"EARLY DISCONTINUATION RETRIEVAL","TREATMENT","2013-06-20",167],
[554,"CDISCPILOT01","VS","CDISC007",39,"PULSE","Pulse Rate","STANDING","68","beats/min","68",68,"beats/min","","","",3,201,"EARLY DISCONTINUATION RETRIEVAL","TREATMENT","2013-06-20",167],
[555,"CDISCPILOT01","VS","CDISC007",40,"SYSBP","Systolic Blood Pressure","STANDING","139","mmHg","139",139,"mmHg","","","",null,1,"SCREENING 1","SCREENING","2012-12-31",-5],
[556,"CDISCPILOT01","VS","CDISC007",41,"SYSBP","Systolic Blood Pressure","SUPINE","137","mmHg","137",137,"mmHg","","","",1,2,"SCREENING 2","SCREENING","2013-01-03",-2],
[557,"CDISCPILOT01","VS","CDISC007",42,"SYSBP","Systolic Blood Pressure","STANDING","117","mmHg","117",117,"mmHg","","","",2,2,"SCREENING 2","SCREENING","2013-01-03",-2],
[558,"CDISCPILOT01","VS","CDISC007",43,"SYSBP","Systolic Blood Pressure","STANDING","131","mmHg","131",131,"mmHg","","","",3,2,"SCREENING 2","SCREENING","2013-01-03",-2],
[559,"CDISCPILOT01","VS","CDISC007",44,"SYSBP","Systolic Blood Pressure","SUPINE","159","mmHg","159",159,"mmHg","","","",1,3,"BASELINE","SCREENING","2013-01-05",1],
[560,"CDISCPILOT01","VS","CDISC007",45,"SYSBP","Systolic Blood Pressure","STANDING","138","mmHg","138",138,"mmHg","","","",2,3,"BASELINE","SCREENING","2013-01-05",1],
[561,"CDISCPILOT01","VS","CDISC007",46,"SYSBP","Systolic Blood Pressure","STANDING","138","mmHg","138",138,"mmHg","","","Y",3,3,"BASELINE","SCREENING","2013-01-05",1],
[562,"CDISCPILOT01","VS","CDISC007",47,"SYSBP","Systolic Blood Pressure","SUPINE","138","mmHg","138",138,"mmHg","","","",1,4,"WEEK 2","TREATMENT","2013-01-18",14],
[563,"CDISCPILOT01","VS","CDISC007",48,"SYSBP","Systolic Blood Pressure","STANDING","131","mmHg","131",131,"mmHg","","","",2,4,"WEEK 2","TREATMENT","2013-01-18",14],
[564,"CDISCPILOT01","VS","CDISC007",49,"SYSBP","Systolic Blood Pressure","STANDING","139","mmHg","139",139,"mmHg","","","",3,4,"WEEK 2","TREATMENT","2013-01-18",14],
[565,"CDISCPILOT01","VS","CDISC007",50,"SYSBP","Systolic Blood Pressure","SUPINE","138","mmHg","138",138,"mmHg","","","",1,5,"WEEK 4","TREATMENT","2013-01-31",27],
[566,"CDISCPILOT01","VS","CDISC007",51,"SYSBP","Systolic Blood Pressure","STANDING","121","mmHg","121",121,"mmHg","","","",2,5,"WEEK 4","TREATMENT","2013-01-31",27],
[567,"CDISCPILOT01","VS","CDISC007",52,"SYSBP","Systolic Blood Pressure","STANDING","137","mmHg","137",137,"mmHg","","","",3,5,"WEEK 4","TREATMENT","2013-01-31",27],
[568,"CDISCPILOT01","VS","CDISC007",53,"SYSBP","Systolic Blood Pressure","SUPINE","128","mmHg","128",128,"mmHg","","","",1,7,"WEEK 6","TREATMENT","2013-02-13",40],
[569,"CDISCPILOT01","VS","CDISC007",54,"SYSBP","Systolic Blood Pressure","STANDING","122","mmHg","122",122,"mmHg","","","",2,7,"WEEK 6","TREATMENT","2013-02-13",40],
[570,"CDISCPILOT01","VS","CDISC007",55,"SYSBP","Systolic Blood Pressure","STANDING","130","mmHg","130",130,"mmHg","","","",3,7,"WEEK 6","TREATMENT","2013-02-13",40],
[571,"CDISCPILOT01","VS","CDISC007",56,"SYSBP","Systolic Blood Pressure","SUPINE","129","mmHg","129",129,"mmHg","","","",1,201,"EARLY DISCONTINUATION RETRIEVAL","TREATMENT","2013-06-20",167],
[572,"CDISCPILOT01","VS","CDISC007",57,"SYSBP","Systolic Blood Pressure","STANDING","115","mmHg","115",115,"mmHg","","","",2,201,"EARLY DISCONTINUATION RETRIEVAL","TREATMENT","2013-06-20",167],
[573,"CDISCPILOT01","VS","CDISC007",58,"SYSBP","Systolic Blood Pressure","STANDING","116","mmHg","116",116,"mmHg","","","",3,201,"EARLY DISCONTINUATION RETRIEVAL","TREATMENT","2013-06-20",167],
[574,"CDISCPILOT01","VS","CDISC007",59,"TEMP","Temperature","","97.9","F","36.61",36.61,"C","","ORAL CAVITY","",null,1,"SCREENING 1","SCREENING","2012-12-31",-5],
[575,"CDISCPILOT01","VS","CDISC007",60,"TEMP","Temperature","","98.8","F","37.11",37.11,"C","","ORAL CAVITY","",null,2,"SCREENING 2","SCREENING","2013-01-03",-2],
[576,"CDISCPILOT01","VS","CDISC007",61,"TEMP","Temperature","","98.5","F","36.94",36.94,"C","","ORAL CAVITY","",null,3,"BASELINE","SCREENING","2013-01-05",1],
[577,"CDISCPILOT01","VS","CDISC007",62,"TEMP","Temperature","","98.4","F","36.89",36.89,"C","","ORAL CAVITY","",null,4,"WEEK 2","TREATMENT","2013-01-18",14],
[578,"CDISCPILOT01","VS","CDISC007",63,"TEMP","Temperature","","98.1","F","36.72",36.72,"C","","ORAL CAVITY","",null,5,"WEEK 4","TREATMENT","2013-01-31",27],
[579,"CDISCPILOT01","VS","CDISC007",64,"TEMP","Temperature","","98.1","F","36.72",36.72,"C","","ORAL CAVITY","",null,7,"WEEK 6","TREATMENT","2013-02-13",40],
[580,"CDISCPILOT01","VS","CDISC007",65,"TEMP","Temperature","","97.2","F","36.22",36.22,"C","","ORAL CAVITY","",null,201,"EARLY DISCONTINUATION RETRIEVAL","TREATMENT","2013-06-20",167],
[581,"CDISCPILOT01","VS","CDISC007",66,"WEIGHT","Weight","","230.0","LB","104.33",104.33,"kg","","","",null,1,"SCREENING 1","SCREENING","2012-12-31",-5],
[582,"CDISCPILOT01","VS","CDISC007",67,"WEIGHT","Weight","","224.0","LB","101.61",101.61,"kg","","","",null,3,"BASELINE","SCREENING","2013-01-05",1],
[583,"CDISCPILOT01","VS","CDISC007",68,"WEIGHT","Weight","","230.0","LB","104.33",104.33,"kg","","","",null,4,"WEEK 2","TREATMENT","2013-01-18",14],
[584,"CDISCPILOT01","VS","CDISC007",69,"WEIGHT","Weight","","227.0","LB","102.97",102.97,"kg","","","",null,5,"WEEK 4","TREATMENT","2013-01-31",27],
[585,"CDISCPILOT01","VS","CDISC007",70,"WEIGHT","Weight","","225.0","LB","102.06",102.06,"kg","","","",null,7,"WEEK 6","TREATMENT","2013-02-13",40],
[586,"CDISCPILOT01","VS","CDISC008",1,"DIABP","Diastolic Blood Pressure","SUPINE","76","mmHg","76",76,"mmHg","","","",1,1,"SCREENING 1","SCREENING","2014-05-01",-10],
[587,"CDISCPILOT01","VS","CDISC008",2,"DIABP","Diastolic Blood Pressure","STANDING","70","mmHg","70",70,"mmHg","","","",2,1,"SCREENING 1","SCREENING","2014-05-01",-10],
[588,"CDISCPILOT01","VS","CDISC008",3,"DIABP","Diastolic Blood Pressure","STANDING","72","mmHg","72",72,"mmHg","","","",3,1,"SCREENING 1","SCREENING","2014-05-01",-10],
[589,"CDISCPILOT01","VS","CDISC008",4,"DIABP","Diastolic Blood Pressure","SUPINE","80","mmHg","80",80,"mmHg","","","",1,2,"SCREENING 2","SCREENING","2014-05-09",-2],
[590,"CDISCPILOT01","VS","CDISC008",5,"DIABP","Diastolic Blood Pressure","STANDING","82","mmHg","82",82,"mmHg","","","",2,2,"SCREENING 2","SCREENING","2014-05-09",-2],
[591,"CDISCPILOT01","VS","CDISC008",6,"DIABP","Diastolic Blood Pressure","STANDING","78","mmHg","78",78,"mmHg","","","",3,2,"SCREENING 2","SCREENING","2014-05-09",-2],
[592,"CDISCPILOT01","VS","CDISC008",7,"DIABP","Diastolic Blood Pressure","SUPINE","72","mmHg","72",72,"mmHg","","","",1,3,"BASELINE","SCREENING","2014-05-11",1],
[593,"CDISCPILOT01","VS","CDISC008",8,"DIABP","Diastolic Blood Pressure","STANDING","76","mmHg","76",76,"mmHg","","","",2,3,"BASELINE","SCREENING","2014-05-11",1],
[594,"CDISCPILOT01","VS","CDISC008",9,"DIABP","Diastolic Blood Pressure","STANDING","78","mmHg","78",78,"mmHg","","","Y",3,3,"BASELINE","SCREENING","2014-05-11",1],
[595,"CDISCPILOT01","VS","CDISC008",10,"DIABP","Diastolic Blood Pressure","SUPINE","74","mmHg","74",74,"mmHg","","","",1,4,"WEEK 2","TREATMENT","2014-05-25",15],
[596,"CDISCPILOT01","VS","CDISC008",11,"DIABP","Diastolic Blood Pressure","STANDING","78","mmHg","78",78,"mmHg","","","",2,4,"WEEK 2","TREATMENT","2014-05-25",15],
[597,"CDISCPILOT01","VS","CDISC008",12,"DIABP","Diastolic Blood Pressure","STANDING","76","mmHg","76",76,"mmHg","","","",3,4,"WEEK 2","TREATMENT","2014-05-25",15],
[598,"CDISCPILOT01","VS","CDISC008",13,"DIABP","Diastolic Blood Pressure","SUPINE","72","mmHg","72",72,"mmHg","","","",1,5,"WEEK 4","TREATMENT","2014-06-11",32],
[599,"CDISCPILOT01","VS","CDISC008",14,"DIABP","Diastolic Blood Pressure","STANDING","80","mmHg","80",80,"mmHg","","","",2,5,"WEEK 4","TREATMENT","2014-06-11",32],
[600,"CDISCPILOT01","VS","CDISC008",15,"DIABP","Diastolic Blood Pressure","STANDING","76","mmHg","76",76,"mmHg","","","",3,5,"WEEK 4","TREATMENT","2014-06-11",32],
[601,"CDISCPILOT01","VS","CDISC008",16,"DIABP","Diastolic Blood Pressure","SUPINE","70","mmHg","70",70,"mmHg","","","",1,7,"WEEK 6","TREATMENT","2014-06-25",46],
[602,"CDISCPILOT01","VS","CDISC008",17,"DIABP","Diastolic Blood Pressure","STANDING","74","mmHg","74",74,"mmHg","","","",2,7,"WEEK 6","TREATMENT","2014-06-25",46],
[603,"CDISCPILOT01","VS","CDISC008",18,"DIABP","Diastolic Blood Pressure","STANDING","76","mmHg","76",76,"mmHg","","","",3,7,"WEEK 6","TREATMENT","2014-06-25",46],
[604,"CDISCPILOT01","VS","CDISC008",19,"DIABP","Diastolic Blood Pressure","SUPINE","72","mmHg","72",72,"mmHg","","","",1,8,"WEEK 8","TREATMENT","2014-07-09",60],
[605,"CDISCPILOT01","VS","CDISC008",20,"DIABP","Diastolic Blood Pressure","STANDING","74","mmHg","74",74,"mmHg","","","",2,8,"WEEK 8","TREATMENT","2014-07-09",60],
[606,"CDISCPILOT01","VS","CDISC008",21,"DIABP","Diastolic Blood Pressure","STANDING","78","mmHg","78",78,"mmHg","","","",3,8,"WEEK 8","TREATMENT","2014-07-09",60],
[607,"CDISCPILOT01","VS","CDISC008",22,"DIABP","Diastolic Blood Pressure","SUPINE","68","mmHg","68",68,"mmHg","","","",1,9,"WEEK 12","TREATMENT","2014-08-06",88],
[608,"CDISCPILOT01","VS","CDISC008",23,"DIABP","Diastolic Blood Pressure","STANDING","78","mmHg","78",78,"mmHg","","","",2,9,"WEEK 12","TREATMENT","2014-08-06",88],
[609,"CDISCPILOT01","VS","CDISC008",24,"DIABP","Diastolic Blood Pressure","STANDING","74","mmHg","74",74,"mmHg","","","",3,9,"WEEK 12","TREATMENT","2014-08-06",88],
[610,"CDISCPILOT01","VS","CDISC008",25,"DIABP","Diastolic Blood Pressure","SUPINE","82","mmHg","82",82,"mmHg","","","",1,10,"WEEK 16","TREATMENT","2014-09-03",116],
[611,"CDISCPILOT01","VS","CDISC008",26,"DIABP","Diastolic Blood Pressure","STANDING","84","mmHg","84",84,"mmHg","","","",2,10,"WEEK 16","TREATMENT","2014-09-03",116],
[612,"CDISCPILOT01","VS","CDISC008",27,"DIABP","Diastolic Blood Pressure","STANDING","88","mmHg","88",88,"mmHg","","","",3,10,"WEEK 16","TREATMENT","2014-09-03",116],
[613,"CDISCPILOT01","VS","CDISC008",28,"DIABP","Diastolic Blood Pressure","SUPINE","84","mmHg","84",84,"mmHg","","","",1,11,"WEEK 20","TREATMENT","2014-10-01",144],
[614,"CDISCPILOT01","VS","CDISC008",29,"DIABP","Diastolic Blood Pressure","STANDING","82","mmHg","82",82,"mmHg","","","",2,11,"WEEK 20","TREATMENT","2014-10-01",144],
[615,"CDISCPILOT01","VS","CDISC008",30,"DIABP","Diastolic Blood Pressure","STANDING","68","mmHg","68",68,"mmHg","","","",3,11,"WEEK 20","TREATMENT","2014-10-01",144],
[616,"CDISCPILOT01","VS","CDISC008",31,"HEIGHT","Height","","70.0","in","177.8",177.8,"cm","","","",null,1,"SCREENING 1","SCREENING","2014-05-01",-10],
[617,"CDISCPILOT01","VS","CDISC008",32,"PULSE","Pulse Rate","SUPINE","80","beats/min","80",80,"beats/min","","","",1,1,"SCREENING 1","SCREENING","2014-05-01",-10],
[618,"CDISCPILOT01","VS","CDISC008",33,"PULSE","Pulse Rate","STANDING","98","beats/min","98",98,"beats/min","","","",2,1,"SCREENING 1","SCREENING","2014-05-01",-10],
[619,"CDISCPILOT01","VS","CDISC008",34,"PULSE","Pulse Rate","STANDING","90","beats/min","90",90,"beats/min","","","",3,1,"SCREENING 1","SCREENING","2014-05-01",-10],
[620,"CDISCPILOT01","VS","CDISC008",35,"PULSE","Pulse Rate","SUPINE","76","beats/min","76",76,"beats/min","","","",1,2,"SCREENING 2","SCREENING","2014-05-09",-2],
[621,"CDISCPILOT01","VS","CDISC008",36,"PULSE","Pulse Rate","STANDING","84","beats/min","84",84,"beats/min","","","",2,2,"SCREENING 2","SCREENING","2014-05-09",-2],
[622,"CDISCPILOT01","VS","CDISC008",37,"PULSE","Pulse Rate","STANDING","84","beats/min","84",84,"beats/min","","","",3,2,"SCREENING 2","SCREENING","2014-05-09",-2],
[623,"CDISCPILOT01","VS","CDISC008",38,"PULSE","Pulse Rate","SUPINE","74","beats/min","74",74,"beats/min","","","",1,3,"BASELINE","SCREENING","2014-05-11",1],
[624,"CDISCPILOT01","VS","CDISC008",39,"PULSE","Pulse Rate","STANDING","80","beats/min","80",80,"beats/min","","","",2,3,"BASELINE","SCREENING","2014-05-11",1],
[625,"CDISCPILOT01","VS","CDISC008",40,"PULSE","Pulse Rate","STANDING","80","beats/min","80",80,"beats/min","","","Y",3,3,"BASELINE","SCREENING","2014-05-11",1],
[626,"CDISCPILOT01","VS","CDISC008",41,"PULSE","Pulse Rate","SUPINE","80","beats/min","80",80,"beats/min","","","",1,4,"WEEK 2","TREATMENT","2014-05-25",15],
[627,"CDISCPILOT01","VS","CDISC008",42,"PULSE","Pulse Rate","STANDING","86","beats/min","86",86,"beats/min","","","",2,4,"WEEK 2","TREATMENT","2014-05-25",15],
[628,"CDISCPILOT01","VS","CDISC008",43,"PULSE","Pulse Rate","STANDING","84","beats/min","84",84,"beats/min","","","",3,4,"WEEK 2","TREATMENT","2014-05-25",15],
[629,"CDISCPILOT01","VS","CDISC008",44,"PULSE","Pulse Rate","SUPINE","76","beats/min","76",76,"beats/min","","","",1,5,"WEEK 4","TREATMENT","2014-06-11",32],
[630,"CDISCPILOT01","VS","CDISC008",45,"PULSE","Pulse Rate","STANDING","80","beats/min","80",80,"beats/min","","","",2,5,"WEEK 4","TREATMENT","2014-06-11",32],
[631,"CDISCPILOT01","VS","CDISC008",46,"PULSE","Pulse Rate","STANDING","80","beats/min","80",80,"beats/min","","","",3,5,"WEEK 4","TREATMENT","2014-06-11",32],
[632,"CDISCPILOT01","VS","CDISC008",47,"PULSE","Pulse Rate","SUPINE","72","beats/min","72",72,"beats/min","","","",1,7,"WEEK 6","TREATMENT","2014-06-25",46],
[633,"CDISCPILOT01","VS","CDISC008",48,"PULSE","Pulse Rate","STANDING","80","beats/min","80",80,"beats/min","","","",2,7,"WEEK 6","TREATMENT","2014-06-25",46],
[634,"CDISCPILOT01","VS","CDISC008",49,"PULSE","Pulse Rate","STANDING","76","beats/min","76",76,"beats/min","","","",3,7,"WEEK 6","TREATMENT","2014-06-25",46],
[635,"CDISCPILOT01","VS","CDISC008",50,"PULSE","Pulse Rate","SUPINE","74","beats/min","74",74,"beats/min","","","",1,8,"WEEK 8","TREATMENT","2014-07-09",60],
[636,"CDISCPILOT01","VS","CDISC008",51,"PULSE","Pulse Rate","STANDING","80","beats/min","80",80,"beats/min","","","",2,8,"WEEK 8","TREATMENT","2014-07-09",60],
[637,"CDISCPILOT01","VS","CDISC008",52,"PULSE","Pulse Rate","STANDING","80","beats/min","80",80,"beats/min","","","",3,8,"WEEK 8","TREATMENT","2014-07-09",60],
[638,"CDISCPILOT01","VS","CDISC008",53,"PULSE","Pulse Rate","SUPINE","70","beats/min","70",70,"beats/min","","","",1,9,"WEEK 12","TREATMENT","2014-08-06",88],
[639,"CDISCPILOT01","VS","CDISC008",54,"PULSE","Pulse Rate","STANDING","78","beats/min","78",78,"beats/min","","","",2,9,"WEEK 12","TREATMENT","2014-08-06",88],
[640,"CDISCPILOT01","VS","CDISC008",55,"PULSE","Pulse Rate","STANDING","80","beats/min","80",80,"beats/min","","","",3,9,"WEEK 12","TREATMENT","2014-08-06",88],
[641,"CDISCPILOT01","VS","CDISC008",56,"PULSE","Pulse Rate","SUPINE","78","beats/min","78",78,"beats/min","","","",1,10,"WEEK 16","TREATMENT","2014-09-03",116],
[642,"CDISCPILOT01","VS","CDISC008",57,"PULSE","Pulse Rate","STANDING","78","beats/min","78",78,"beats/min","","","",2,10,"WEEK 16","TREATMENT","2014-09-03",116],
[643,"CDISCPILOT01","VS","CDISC008",58,"PULSE","Pulse Rate","STANDING","78","beats/min","78",78,"beats/min","","","",3,10,"WEEK 16","TREATMENT","2014-09-03",116],
[644,"CDISCPILOT01","VS","CDISC008",59,"PULSE","Pulse Rate","SUPINE","68","beats/min","68",68,"beats/min","","","",1,11,"WEEK 20","TREATMENT","2014-10-01",144],
[645,"CDISCPILOT01","VS","CDISC008",60,"PULSE","Pulse Rate","STANDING","72","beats/min","72",72,"beats/min","","","",2,11,"WEEK 20","TREATMENT","2014-10-01",144],
[646,"CDISCPILOT01","VS","CDISC008",61,"PULSE","Pulse Rate","STANDING","76","beats/min","76",76,"beats/min","","","",3,11,"WEEK 20","TREATMENT","2014-10-01",144],
[647,"CDISCPILOT01","VS","CDISC008",62,"SYSBP","Systolic Blood Pressure","SUPINE","118","mmHg","118",118,"mmHg","","","",1,1,"SCREENING 1","SCREENING","2014-05-01",-10],
[648,"CDISCPILOT01","VS","CDISC008",63,"SYSBP","Systolic Blood Pressure","STANDING","124","mmHg","124",124,"mmHg","","","",2,1,"SCREENING 1","SCREENING","2014-05-01",-10],
[649,"CDISCPILOT01","VS","CDISC008",64,"SYSBP","Systolic Blood Pressure","STANDING","136","mmHg","136",136,"mmHg","","","",3,1,"SCREENING 1","SCREENING","2014-05-01",-10],
[650,"CDISCPILOT01","VS","CDISC008",65,"SYSBP","Systolic Blood Pressure","SUPINE","124","mmHg","124",124,"mmHg","","","",1,2,"SCREENING 2","SCREENING","2014-05-09",-2],
[651,"CDISCPILOT01","VS","CDISC008",66,"SYSBP","Systolic Blood Pressure","STANDING","126","mmHg","126",126,"mmHg","","","",2,2,"SCREENING 2","SCREENING","2014-05-09",-2],
[652,"CDISCPILOT01","VS","CDISC008",67,"SYSBP","Systolic Blood Pressure","STANDING","130","mmHg","130",130,"mmHg","","","",3,2,"SCREENING 2","SCREENING","2014-05-09",-2],
[653,"CDISCPILOT01","VS","CDISC008",68,"SYSBP","Systolic Blood Pressure","SUPINE","116","mmHg","116",116,"mmHg","","","",1,3,"BASELINE","SCREENING","2014-05-11",1],
[654,"CDISCPILOT01","VS","CDISC008",69,"SYSBP","Systolic Blood Pressure","STANDING","120","mmHg","120",120,"mmHg","","","",2,3,"BASELINE","SCREENING","2014-05-11",1],
[655,"CDISCPILOT01","VS","CDISC008",70,"SYSBP","Systolic Blood Pressure","STANDING","126","mmHg","126",126,"mmHg","","","Y",3,3,"BASELINE","SCREENING","2014-05-11",1],
[656,"CDISCPILOT01","VS","CDISC008",71,"SYSBP","Systolic Blood Pressure","SUPINE","124","mmHg","124",124,"mmHg","","","",1,4,"WEEK 2","TREATMENT","2014-05-25",15],
[657,"CDISCPILOT01","VS","CDISC008",72,"SYSBP","Systolic Blood Pressure","STANDING","128","mmHg","128",128,"mmHg","","","",2,4,"WEEK 2","TREATMENT","2014-05-25",15],
[658,"CDISCPILOT01","VS","CDISC008",73,"SYSBP","Systolic Blood Pressure","STANDING","130","mmHg","130",130,"mmHg","","","",3,4,"WEEK 2","TREATMENT","2014-05-25",15],
[659,"CDISCPILOT01","VS","CDISC008",74,"SYSBP","Systolic Blood Pressure","SUPINE","120","mmHg","120",120,"mmHg","","","",1,5,"WEEK 4","TREATMENT","2014-06-11",32],
[660,"CDISCPILOT01","VS","CDISC008",75,"SYSBP","Systolic Blood Pressure","STANDING","128","mmHg","128",128,"mmHg","","","",2,5,"WEEK 4","TREATMENT","2014-06-11",32],
[661,"CDISCPILOT01","VS","CDISC008",76,"SYSBP","Systolic Blood Pressure","STANDING","126","mmHg","126",126,"mmHg","","","",3,5,"WEEK 4","TREATMENT","2014-06-11",32],
[662,"CDISCPILOT01","VS","CDISC008",77,"SYSBP","Systolic Blood Pressure","SUPINE","120","mmHg","120",120,"mmHg","","","",1,7,"WEEK 6","TREATMENT","2014-06-25",46],
[663,"CDISCPILOT01","VS","CDISC008",78,"SYSBP","Systolic Blood Pressure","STANDING","134","mmHg","134",134,"mmHg","","","",2,7,"WEEK 6","TREATMENT","2014-06-25",46],
[664,"CDISCPILOT01","VS","CDISC008",79,"SYSBP","Systolic Blood Pressure","STANDING","130","mmHg","130",130,"mmHg","","","",3,7,"WEEK 6","TREATMENT","2014-06-25",46],
[665,"CDISCPILOT01","VS","CDISC008",80,"SYSBP","Systolic Blood Pressure","SUPINE","126","mmHg","126",126,"mmHg","","","",1,8,"WEEK 8","TREATMENT","2014-07-09",60],
[666,"CDISCPILOT01","VS","CDISC008",81,"SYSBP","Systolic Blood Pressure","STANDING","130","mmHg","130",130,"mmHg","","","",2,8,"WEEK 8","TREATMENT","2014-07-09",60],
[667,"CDISCPILOT01","VS","CDISC008",82,"SYSBP","Systolic Blood Pressure","STANDING","132","mmHg","132",132,"mmHg","","","",3,8,"WEEK 8","TREATMENT","2014-07-09",60],
[668,"CDISCPILOT01","VS","CDISC008",83,"SYSBP","Systolic Blood Pressure","SUPINE","126","mmHg","126",126,"mmHg","","","",1,9,"WEEK 12","TREATMENT","2014-08-06",88],
[669,"CDISCPILOT01","VS","CDISC008",84,"SYSBP","Systolic Blood Pressure","STANDING","128","mmHg","128",128,"mmHg","","","",2,9,"WEEK 12","TREATMENT","2014-08-06",88],
[670,"CDISCPILOT01","VS","CDISC008",85,"SYSBP","Systolic Blood Pressure","STANDING","132","mmHg","132",132,"mmHg","","","",3,9,"WEEK 12","TREATMENT","2014-08-06",88],
[671,"CDISCPILOT01","VS","CDISC008",86,"SYSBP","Systolic Blood Pressure","SUPINE","160","mmHg","160",160,"mmHg","","","",1,10,"WEEK 16","TREATMENT","2014-09-03",116],
[672,"CDISCPILOT01","VS","CDISC008",87,"SYSBP","Systolic Blood Pressure","STANDING","140","mmHg","140",140,"mmHg","","","",2,10,"WEEK 16","TREATMENT","2014-09-03",116],
[673,"CDISCPILOT01","VS","CDISC008",88,"SYSBP","Systolic Blood Pressure","STANDING","142","mmHg","142",142,"mmHg","","","",3,10,"WEEK 16","TREATMENT","2014-09-03",116],
[674,"CDISCPILOT01","VS","CDISC008",89,"SYSBP","Systolic Blood Pressure","SUPINE","152","mmHg","152",152,"mmHg","","","",1,11,"WEEK 20","TREATMENT","2014-10-01",144],
[675,"CDISCPILOT01","VS","CDISC008",90,"SYSBP","Systolic Blood Pressure","STANDING","136","mmHg","136",136,"mmHg","","","",2,11,"WEEK 20","TREATMENT","2014-10-01",144],
[676,"CDISCPILOT01","VS","CDISC008",91,"SYSBP","Systolic Blood Pressure","STANDING","118","mmHg","118",118,"mmHg","","","",3,11,"WEEK 20","TREATMENT","2014-10-01",144],
[677,"CDISCPILOT01","VS","CDISC008",92,"TEMP","Temperature","","97.6","F","36.44",36.44,"C","","ORAL CAVITY","",null,1,"SCREENING 1","SCREENING","2014-05-01",-10],
[678,"CDISCPILOT01","VS","CDISC008",93,"TEMP","Temperature","","98.0","F","36.67",36.67,"C","","ORAL CAVITY","",null,2,"SCREENING 2","SCREENING","2014-05-09",-2],
[679,"CDISCPILOT01","VS","CDISC008",94,"TEMP","Temperature","","98.4","F","36.89",36.89,"C","","ORAL CAVITY","",null,3,"BASELINE","SCREENING","2014-05-11",1],
[680,"CDISCPILOT01","VS","CDISC008",95,"TEMP","Temperature","","98.0","F","36.67",36.67,"C","","ORAL CAVITY","",null,4,"WEEK 2","TREATMENT","2014-05-25",15],
[681,"CDISCPILOT01","VS","CDISC008",96,"TEMP","Temperature","","98.3","F","36.83",36.83,"C","","ORAL CAVITY","",null,5,"WEEK 4","TREATMENT","2014-06-11",32],
[682,"CDISCPILOT01","VS","CDISC008",97,"TEMP","Temperature","","098.5","F","36.94",36.94,"C","","ORAL CAVITY","",null,7,"WEEK 6","TREATMENT","2014-06-25",46],
[683,"CDISCPILOT01","VS","CDISC008",98,"TEMP","Temperature","","098.8","F","37.11",37.11,"C","","ORAL CAVITY","",null,8,"WEEK 8","TREATMENT","2014-07-09",60],
[684,"CDISCPILOT01","VS","CDISC008",99,"TEMP","Temperature","","098.4","F","36.89",36.89,"C","","ORAL CAVITY","",null,9,"WEEK 12","TREATMENT","2014-08-06",88],
[685,"CDISCPILOT01","VS","CDISC008",100,"TEMP","Temperature","","098.0","F","36.67",36.67,"C","","ORAL CAVITY","",null,10,"WEEK 16","TREATMENT","2014-09-03",116],
[686,"CDISCPILOT01","VS","CDISC008",101,"TEMP","Temperature","","097.6","F","36.44",36.44,"C","","ORAL CAVITY","",null,11,"WEEK 20","TREATMENT","2014-10-01",144],
[687,"CDISCPILOT01","VS","CDISC008",102,"WEIGHT","Weight","","158.5","LB","71.9",71.9,"kg","","","",null,1,"SCREENING 1","SCREENING","2014-05-01",-10],
[688,"CDISCPILOT01","VS","CDISC008",103,"WEIGHT","Weight","","159.0","LB","72.12",72.12,"kg","","","",null,3,"BASELINE","SCREENING","2014-05-11",1],
[689,"CDISCPILOT01","VS","CDISC008",104,"WEIGHT","Weight","","160.0","LB","72.58",72.58,"kg","","","",null,4,"WEEK 2","TREATMENT","2014-05-25",15],
[690,"CDISCPILOT01","VS","CDISC008",105,"WEIGHT","Weight","","160.0","LB","72.58",72.58,"kg","","","",null,5,"WEEK 4","TREATMENT","2014-06-11",32],
[691,"CDISCPILOT01","VS","CDISC008",106,"WEIGHT","Weight","","158.0","LB","71.67",71.67,"kg","","","",null,7,"WEEK 6","TREATMENT","2014-06-25",46],
[692,"CDISCPILOT01","VS","CDISC008",107,"WEIGHT","Weight","","159.0","LB","72.12",72.12,"kg","","","",null,8,"WEEK 8","TREATMENT","2014-07-09",60],
[693,"CDISCPILOT01","VS","CDISC008",108,"WEIGHT","Weight","","158.0","LB","71.67",71.67,"kg","","","",null,9,"WEEK 12","TREATMENT","2014-08-06",88],
[694,"CDISCPILOT01","VS","CDISC008",109,"WEIGHT","Weight","","158.0","LB","71.67",71.67,"kg","","","",null,10,"WEEK 16","TREATMENT","2014-09-03",116],
[695,"CDISCPILOT01","VS","CDISC008",110,"WEIGHT","Weight","","159.0","LB","72.12",72.12,"kg","","","",null,11,"WEEK 20","TREATMENT","2014-10-01",144],
[696,"CDISCPILOT01","VS","CDISC009",1,"DIABP","Diastolic Blood Pressure","STANDING","78","mmHg","78",78,"mmHg","","","",null,1,"SCREENING 1","SCREENING","2012-10-06",-16],
[697,"CDISCPILOT01","VS","CDISC009",2,"DIABP","Diastolic Blood Pressure","STANDING","078","mmHg","78",78,"mmHg","","","",null,2,"SCREENING 2","SCREENING","2012-10-20",-2],
[698,"CDISCPILOT01","VS","CDISC009",3,"DIABP","Diastolic Blood Pressure","STANDING","76","mmHg","76",76,"mmHg","","","Y",null,3,"BASELINE","SCREENING","2012-10-22",1],
[699,"CDISCPILOT01","VS","CDISC009",4,"DIABP","Diastolic Blood Pressure","STANDING","78","mmHg","78",78,"mmHg","","","",null,4,"WEEK 2","TREATMENT","2012-11-05",15],
[700,"CDISCPILOT01","VS","CDISC009",5,"DIABP","Diastolic Blood Pressure","STANDING","72","mmHg","72",72,"mmHg","","","",null,5,"WEEK 4","TREATMENT","2012-11-20",30],
[701,"CDISCPILOT01","VS","CDISC009",6,"DIABP","Diastolic Blood Pressure","STANDING","78","mmHg","78",78,"mmHg","","","",null,7,"WEEK 6","TREATMENT","2012-12-08",48],
[702,"CDISCPILOT01","VS","CDISC009",7,"DIABP","Diastolic Blood Pressure","STANDING","80","mmHg","80",80,"mmHg","","","",null,8,"WEEK 8","TREATMENT","2012-12-22",62],
[703,"CDISCPILOT01","VS","CDISC009",8,"DIABP","Diastolic Blood Pressure","SUPINE","80","mmHg","80",80,"mmHg","","","",1,9,"WEEK 12","TREATMENT","2013-01-19",90],
[704,"CDISCPILOT01","VS","CDISC009",9,"DIABP","Diastolic Blood Pressure","STANDING","80","mmHg","80",80,"mmHg","","","",2,9,"WEEK 12","TREATMENT","2013-01-19",90],
[705,"CDISCPILOT01","VS","CDISC009",10,"DIABP","Diastolic Blood Pressure","STANDING","80","mmHg","80",80,"mmHg","","","",3,9,"WEEK 12","TREATMENT","2013-01-19",90],
[706,"CDISCPILOT01","VS","CDISC009",11,"DIABP","Diastolic Blood Pressure","SUPINE","86","mmHg","86",86,"mmHg","","","",1,10,"WEEK 16","TREATMENT","2013-02-16",118],
[707,"CDISCPILOT01","VS","CDISC009",12,"DIABP","Diastolic Blood Pressure","STANDING","78","mmHg","78",78,"mmHg","","","",2,10,"WEEK 16","TREATMENT","2013-02-16",118],
[708,"CDISCPILOT01","VS","CDISC009",13,"DIABP","Diastolic Blood Pressure","STANDING","84","mmHg","84",84,"mmHg","","","",3,10,"WEEK 16","TREATMENT","2013-02-16",118],
[709,"CDISCPILOT01","VS","CDISC009",14,"DIABP","Diastolic Blood Pressure","SUPINE","80","mmHg","80",80,"mmHg","","","",1,11,"WEEK 20","TREATMENT","2013-03-16",146],
[710,"CDISCPILOT01","VS","CDISC009",15,"DIABP","Diastolic Blood Pressure","STANDING","78","mmHg","78",78,"mmHg","","","",2,11,"WEEK 20","TREATMENT","2013-03-16",146],
[711,"CDISCPILOT01","VS","CDISC009",16,"DIABP","Diastolic Blood Pressure","STANDING","80","mmHg","80",80,"mmHg","","","",3,11,"WEEK 20","TREATMENT","2013-03-16",146],
[712,"CDISCPILOT01","VS","CDISC009",17,"DIABP","Diastolic Blood Pressure","SUPINE","80","mmHg","80",80,"mmHg","","","",1,12,"WEEK 24","TREATMENT","2013-04-10",171],
[713,"CDISCPILOT01","VS","CDISC009",18,"DIABP","Diastolic Blood Pressure","STANDING","80","mmHg","80",80,"mmHg","","","",2,12,"WEEK 24","TREATMENT","2013-04-10",171],
[714,"CDISCPILOT01","VS","CDISC009",19,"DIABP","Diastolic Blood Pressure","STANDING","82","mmHg","82",82,"mmHg","","","",3,12,"WEEK 24","TREATMENT","2013-04-10",171],
[715,"CDISCPILOT01","VS","CDISC009",20,"DIABP","Diastolic Blood Pressure","SUPINE","68","mmHg","68",68,"mmHg","","","",1,13,"WEEK 26","TREATMENT","2013-04-28",189],
[716,"CDISCPILOT01","VS","CDISC009",21,"DIABP","Diastolic Blood Pressure","STANDING","68","mmHg","68",68,"mmHg","","","",2,13,"WEEK 26","TREATMENT","2013-04-28",189],
[717,"CDISCPILOT01","VS","CDISC009",22,"DIABP","Diastolic Blood Pressure","STANDING","70","mmHg","70",70,"mmHg","","","",3,13,"WEEK 26","TREATMENT","2013-04-28",189],
[718,"CDISCPILOT01","VS","CDISC009",23,"HEIGHT","Height","","062.0","in","157.48",157.48,"cm","","","",null,1,"SCREENING 1","SCREENING","2012-10-06",-16],
[719,"CDISCPILOT01","VS","CDISC009",24,"PULSE","Pulse Rate","STANDING","60","beats/min","60",60,"beats/min","","","",null,1,"SCREENING 1","SCREENING","2012-10-06",-16],
[720,"CDISCPILOT01","VS","CDISC009",25,"PULSE","Pulse Rate","STANDING","78","beats/min","78",78,"beats/min","","","",null,2,"SCREENING 2","SCREENING","2012-10-20",-2],
[721,"CDISCPILOT01","VS","CDISC009",26,"PULSE","Pulse Rate","STANDING","62","beats/min","62",62,"beats/min","","","Y",null,3,"BASELINE","SCREENING","2012-10-22",1],
[722,"CDISCPILOT01","VS","CDISC009",27,"PULSE","Pulse Rate","STANDING","80","beats/min","80",80,"beats/min","","","",null,4,"WEEK 2","TREATMENT","2012-11-05",15],
[723,"CDISCPILOT01","VS","CDISC009",28,"PULSE","Pulse Rate","STANDING","78","beats/min","78",78,"beats/min","","","",null,5,"WEEK 4","TREATMENT","2012-11-20",30],
[724,"CDISCPILOT01","VS","CDISC009",29,"PULSE","Pulse Rate","STANDING","74","beats/min","74",74,"beats/min","","","",null,7,"WEEK 6","TREATMENT","2012-12-08",48],
[725,"CDISCPILOT01","VS","CDISC009",30,"PULSE","Pulse Rate","STANDING","60","beats/min","60",60,"beats/min","","","",null,8,"WEEK 8","TREATMENT","2012-12-22",62],
[726,"CDISCPILOT01","VS","CDISC009",31,"PULSE","Pulse Rate","SUPINE","72","beats/min","72",72,"beats/min","","","",1,9,"WEEK 12","TREATMENT","2013-01-19",90],
[727,"CDISCPILOT01","VS","CDISC009",32,"PULSE","Pulse Rate","STANDING","84","beats/min","84",84,"beats/min","","","",2,9,"WEEK 12","TREATMENT","2013-01-19",90],
[728,"CDISCPILOT01","VS","CDISC009",33,"PULSE","Pulse Rate","STANDING","72","beats/min","72",72,"beats/min","","","",3,9,"WEEK 12","TREATMENT","2013-01-19",90],
[729,"CDISCPILOT01","VS","CDISC009",34,"PULSE","Pulse Rate","SUPINE","60","beats/min","60",60,"beats/min","","","",1,10,"WEEK 16","TREATMENT","2013-02-16",118],
[730,"CDISCPILOT01","VS","CDISC009",35,"PULSE","Pulse Rate","STANDING","56","beats/min","56",56,"beats/min","","","",2,10,"WEEK 16","TREATMENT","2013-02-16",118],
[731,"CDISCPILOT01","VS","CDISC009",36,"PULSE","Pulse Rate","STANDING","64","beats/min","64",64,"beats/min","","","",3,10,"WEEK 16","TREATMENT","2013-02-16",118],
[732,"CDISCPILOT01","VS","CDISC009",37,"PULSE","Pulse Rate","SUPINE","64","beats/min","64",64,"beats/min","","","",1,11,"WEEK 20","TREATMENT","2013-03-16",146],
[733,"CDISCPILOT01","VS","CDISC009",38,"PULSE","Pulse Rate","STANDING","66","beats/min","66",66,"beats/min","","","",2,11,"WEEK 20","TREATMENT","2013-03-16",146],
[734,"CDISCPILOT01","VS","CDISC009",39,"PULSE","Pulse Rate","STANDING","60","beats/min","60",60,"beats/min","","","",3,11,"WEEK 20","TREATMENT","2013-03-16",146],
[735,"CDISCPILOT01","VS","CDISC009",40,"PULSE","Pulse Rate","SUPINE","60","beats/min","60",60,"beats/min","","","",1,12,"WEEK 24","TREATMENT","2013-04-10",171],
[736,"CDISCPILOT01","VS","CDISC009",41,"PULSE","Pulse Rate","STANDING","72","beats/min","72",72,"beats/min","","","",2,12,"WEEK 24","TREATMENT","2013-04-10",171],
[737,"CDISCPILOT01","VS","CDISC009",42,"PULSE","Pulse Rate","STANDING","72","beats/min","72",72,"beats/min","","","",3,12,"WEEK 24","TREATMENT","2013-04-10",171],
[738,"CDISCPILOT01","VS","CDISC009",43,"PULSE","Pulse Rate","SUPINE","68","beats/min","68",68,"beats/min","","","",1,13,"WEEK 26","TREATMENT","2013-04-28",189],
[739,"CDISCPILOT01","VS","CDISC009",44,"PULSE","Pulse Rate","STANDING","64","beats/min","64",64,"beats/min","","","",2,13,"WEEK 26","TREATMENT","2013-04-28",189],
[740,"CDISCPILOT01","VS","CDISC009",45,"PULSE","Pulse Rate","STANDING","60","beats/min","60",60,"beats/min","","","",3,13,"WEEK 26","TREATMENT","2013-04-28",189],
[741,"CDISCPILOT01","VS","CDISC009",46,"SYSBP","Systolic Blood Pressure","STANDING","174","mmHg","174",174,"mmHg","","","",null,1,"SCREENING 1","SCREENING","2012-10-06",-16],
[742,"CDISCPILOT01","VS","CDISC009",47,"SYSBP","Systolic Blood Pressure","STANDING","160","mmHg","160",160,"mmHg","","","",null,2,"SCREENING 2","SCREENING","2012-10-20",-2],
[743,"CDISCPILOT01","VS","CDISC009",48,"SYSBP","Systolic Blood Pressure","STANDING","170","mmHg","170",170,"mmHg","","","Y",null,3,"BASELINE","SCREENING","2012-10-22",1],
[744,"CDISCPILOT01","VS","CDISC009",49,"SYSBP","Systolic Blood Pressure","STANDING","168","mmHg","168",168,"mmHg","","","",null,4,"WEEK 2","TREATMENT","2012-11-05",15],
[745,"CDISCPILOT01","VS","CDISC009",50,"SYSBP","Systolic Blood Pressure","STANDING","142","mmHg","142",142,"mmHg","","","",null,5,"WEEK 4","TREATMENT","2012-11-20",30],
[746,"CDISCPILOT01","VS","CDISC009",51,"SYSBP","Systolic Blood Pressure","STANDING","150","mmHg","150",150,"mmHg","","","",null,7,"WEEK 6","TREATMENT","2012-12-08",48],
[747,"CDISCPILOT01","VS","CDISC009",52,"SYSBP","Systolic Blood Pressure","STANDING","130","mmHg","130",130,"mmHg","","","",null,8,"WEEK 8","TREATMENT","2012-12-22",62],
[748,"CDISCPILOT01","VS","CDISC009",53,"SYSBP","Systolic Blood Pressure","SUPINE","160","mmHg","160",160,"mmHg","","","",1,9,"WEEK 12","TREATMENT","2013-01-19",90],
[749,"CDISCPILOT01","VS","CDISC009",54,"SYSBP","Systolic Blood Pressure","STANDING","160","mmHg","160",160,"mmHg","","","",2,9,"WEEK 12","TREATMENT","2013-01-19",90],
[750,"CDISCPILOT01","VS","CDISC009",55,"SYSBP","Systolic Blood Pressure","STANDING","160","mmHg","160",160,"mmHg","","","",3,9,"WEEK 12","TREATMENT","2013-01-19",90],
[751,"CDISCPILOT01","VS","CDISC009",56,"SYSBP","Systolic Blood Pressure","SUPINE","162","mmHg","162",162,"mmHg","","","",1,10,"WEEK 16","TREATMENT","2013-02-16",118],
[752,"CDISCPILOT01","VS","CDISC009",57,"SYSBP","Systolic Blood Pressure","STANDING","150","mmHg","150",150,"mmHg","","","",2,10,"WEEK 16","TREATMENT","2013-02-16",118],
[753,"CDISCPILOT01","VS","CDISC009",58,"SYSBP","Systolic Blood Pressure","STANDING","162","mmHg","162",162,"mmHg","","","",3,10,"WEEK 16","TREATMENT","2013-02-16",118],
[754,"CDISCPILOT01","VS","CDISC009",59,"SYSBP","Systolic Blood Pressure","SUPINE","160","mmHg","160",160,"mmHg","","","",1,11,"WEEK 20","TREATMENT","2013-03-16",146],
[755,"CDISCPILOT01","VS","CDISC009",60,"SYSBP","Systolic Blood Pressure","STANDING","142","mmHg","142",142,"mmHg","","","",2,11,"WEEK 20","TREATMENT","2013-03-16",146],
[756,"CDISCPILOT01","VS","CDISC009",61,"SYSBP","Systolic Blood Pressure","STANDING","138","mmHg","138",138,"mmHg","","","",3,11,"WEEK 20","TREATMENT","2013-03-16",146],
[757,"CDISCPILOT01","VS","CDISC009",62,"SYSBP","Systolic Blood Pressure","SUPINE","160","mmHg","160",160,"mmHg","","","",1,12,"WEEK 24","TREATMENT","2013-04-10",171],
[758,"CDISCPILOT01","VS","CDISC009",63,"SYSBP","Systolic Blood Pressure","STANDING","140","mmHg","140",140,"mmHg","","","",2,12,"WEEK 24","TREATMENT","2013-04-10",171],
[759,"CDISCPILOT01","VS","CDISC009",64,"SYSBP","Systolic Blood Pressure","STANDING","150","mmHg","150",150,"mmHg","","","",3,12,"WEEK 24","TREATMENT","2013-04-10",171],
[760,"CDISCPILOT01","VS","CDISC009",65,"SYSBP","Systolic Blood Pressure","SUPINE","124","mmHg","124",124,"mmHg","","","",1,13,"WEEK 26","TREATMENT","2013-04-28",189],
[761,"CDISCPILOT01","VS","CDISC009",66,"SYSBP","Systolic Blood Pressure","STANDING","134","mmHg","134",134,"mmHg","","","",2,13,"WEEK 26","TREATMENT","2013-04-28",189],
[762,"CDISCPILOT01","VS","CDISC009",67,"SYSBP","Systolic Blood Pressure","STANDING","152","mmHg","152",152,"mmHg","","","",3,13,"WEEK 26","TREATMENT","2013-04-28",189],
[763,"CDISCPILOT01","VS","CDISC009",68,"TEMP","Temperature","","098.4","F","36.89",36.89,"C","","EAR","",null,1,"SCREENING 1","SCREENING","2012-10-06",-16],
[764,"CDISCPILOT01","VS","CDISC009",69,"TEMP","Temperature","","097.3","F","36.28",36.28,"C","","EAR","",null,2,"SCREENING 2","SCREENING","2012-10-20",-2],
[765,"CDISCPILOT01","VS","CDISC009",70,"TEMP","Temperature","","098.2","F","36.78",36.78,"C","","EAR","",null,3,"BASELINE","SCREENING","2012-10-22",1],
[766,"CDISCPILOT01","VS","CDISC009",71,"TEMP","Temperature","","098.0","F","36.67",36.67,"C","","EAR","",null,4,"WEEK 2","TREATMENT","2012-11-05",15],
[767,"CDISCPILOT01","VS","CDISC009",72,"TEMP","Temperature","","096.8","F","36",36,"C","","EAR","",null,5,"WEEK 4","TREATMENT","2012-11-20",30],
[768,"CDISCPILOT01","VS","CDISC009",73,"TEMP","Temperature","","097.7","F","36.5",36.5,"C","","EAR","",null,7,"WEEK 6","TREATMENT","2012-12-08",48],
[769,"CDISCPILOT01","VS","CDISC009",74,"TEMP","Temperature","","097.5","F","36.39",36.39,"C","","EAR","",null,8,"WEEK 8","TREATMENT","2012-12-22",62],
[770,"CDISCPILOT01","VS","CDISC009",75,"TEMP","Temperature","","098.4","F","36.89",36.89,"C","","EAR","",null,9,"WEEK 12","TREATMENT","2013-01-19",90],
[771,"CDISCPILOT01","VS","CDISC009",76,"TEMP","Temperature","","097.5","F","36.39",36.39,"C","","EAR","",null,10,"WEEK 16","TREATMENT","2013-02-16",118],
[772,"CDISCPILOT01","VS","CDISC009",77,"TEMP","Temperature","","096.4","F","35.78",35.78,"C","","EAR","",null,11,"WEEK 20","TREATMENT","2013-03-16",146],
[773,"CDISCPILOT01","VS","CDISC009",78,"TEMP","Temperature","","096.1","F","35.61",35.61,"C","","EAR","",null,12,"WEEK 24","TREATMENT","2013-04-10",171],
[774,"CDISCPILOT01","VS","CDISC009",79,"TEMP","Temperature","","097.8","F","36.56",36.56,"C","","EAR","",null,13,"WEEK 26","TREATMENT","2013-04-28",189],
[775,"CDISCPILOT01","VS","CDISC009",80,"WEIGHT","Weight","","147.0","LB","66.68",66.68,"kg","","","",null,1,"SCREENING 1","SCREENING","2012-10-06",-16],
[776,"CDISCPILOT01","VS","CDISC009",81,"WEIGHT","Weight","","147.0","LB","66.68",66.68,"kg","","","",null,3,"BASELINE","SCREENING","2012-10-22",1],
[777,"CDISCPILOT01","VS","CDISC009",82,"WEIGHT","Weight","","157.0","LB","71.22",71.22,"kg","","","",null,5,"WEEK 4","TREATMENT","2012-11-20",30],
[778,"CDISCPILOT01","VS","CDISC009",83,"WEIGHT","Weight","","156.0","LB","70.76",70.76,"kg","","","",null,7,"WEEK 6","TREATMENT","2012-12-08",48],
[779,"CDISCPILOT01","VS","CDISC009",84,"WEIGHT","Weight","","157.0","LB","71.22",71.22,"kg","","","",null,8,"WEEK 8","TREATMENT","2012-12-22",62],
[780,"CDISCPILOT01","VS","CDISC009",85,"WEIGHT","Weight","","158.0","LB","71.67",71.67,"kg","","","",null,9,"WEEK 12","TREATMENT","2013-01-19",90],
[781,"CDISCPILOT01","VS","CDISC009",86,"WEIGHT","Weight","","157.0","LB","71.22",71.22,"kg","","","",null,10,"WEEK 16","TREATMENT","2013-02-16",118],
[782,"CDISCPILOT01","VS","CDISC009",87,"WEIGHT","Weight","","158.0","LB","71.67",71.67,"kg","","","",null,11,"WEEK 20","TREATMENT","2013-03-16",146],
[783,"CDISCPILOT01","VS","CDISC009",88,"WEIGHT","Weight","","155.0","LB","70.31",70.31,"kg","","","",null,12,"WEEK 24","TREATMENT","2013-04-10",171],
[784,"CDISCPILOT01","VS","CDISC009",89,"WEIGHT","Weight","","156.0","LB","70.76",70.76,"kg","","","",null,13,"WEEK 26","TREATMENT","2013-04-28",189],
[785,"CDISCPILOT01","VS","CDISC010",1,"DIABP","Diastolic Blood Pressure","SUPINE","110","mmHg","110",110,"mmHg","","","",1,1,"SCREENING 1","SCREENING","2013-09-08",-13],
[786,"CDISCPILOT01","VS","CDISC010",2,"DIABP","Diastolic Blood Pressure","STANDING","100","mmHg","100",100,"mmHg","","","",2,1,"SCREENING 1","SCREENING","2013-09-08",-13],
[787,"CDISCPILOT01","VS","CDISC010",3,"DIABP","Diastolic Blood Pressure","STANDING","100","mmHg","100",100,"mmHg","","","",3,1,"SCREENING 1","SCREENING","2013-09-08",-13],
[788,"CDISCPILOT01","VS","CDISC010",4,"DIABP","Diastolic Blood Pressure","SUPINE","80","mmHg","80",80,"mmHg","","","",1,2,"SCREENING 2","SCREENING","2013-09-19",-2],
[789,"CDISCPILOT01","VS","CDISC010",5,"DIABP","Diastolic Blood Pressure","STANDING","80","mmHg","80",80,"mmHg","","","",2,2,"SCREENING 2","SCREENING","2013-09-19",-2],
[790,"CDISCPILOT01","VS","CDISC010",6,"DIABP","Diastolic Blood Pressure","STANDING","76","mmHg","76",76,"mmHg","","","",3,2,"SCREENING 2","SCREENING","2013-09-19",-2],
[791,"CDISCPILOT01","VS","CDISC010",7,"DIABP","Diastolic Blood Pressure","SUPINE","64","mmHg","64",64,"mmHg","","","",1,3,"BASELINE","SCREENING","2013-09-21",1],
[792,"CDISCPILOT01","VS","CDISC010",8,"DIABP","Diastolic Blood Pressure","STANDING","78","mmHg","78",78,"mmHg","","","",2,3,"BASELINE","SCREENING","2013-09-21",1],
[793,"CDISCPILOT01","VS","CDISC010",9,"DIABP","Diastolic Blood Pressure","STANDING","84","mmHg","84",84,"mmHg","","","Y",3,3,"BASELINE","SCREENING","2013-09-21",1],
[794,"CDISCPILOT01","VS","CDISC010",10,"HEIGHT","Height","","060.0","in","152.4",152.4,"cm","","","",null,1,"SCREENING 1","SCREENING","2013-09-08",-13],
[795,"CDISCPILOT01","VS","CDISC010",11,"PULSE","Pulse Rate","SUPINE","90","beats/min","90",90,"beats/min","","","",1,1,"SCREENING 1","SCREENING","2013-09-08",-13],
[796,"CDISCPILOT01","VS","CDISC010",12,"PULSE","Pulse Rate","STANDING","88","beats/min","88",88,"beats/min","","","",2,1,"SCREENING 1","SCREENING","2013-09-08",-13],
[797,"CDISCPILOT01","VS","CDISC010",13,"PULSE","Pulse Rate","STANDING","90","beats/min","90",90,"beats/min","","","",3,1,"SCREENING 1","SCREENING","2013-09-08",-13],
[798,"CDISCPILOT01","VS","CDISC010",14,"PULSE","Pulse Rate","SUPINE","90","beats/min","90",90,"beats/min","","","",1,2,"SCREENING 2","SCREENING","2013-09-19",-2],
[799,"CDISCPILOT01","VS","CDISC010",15,"PULSE","Pulse Rate","STANDING","92","beats/min","92",92,"beats/min","","","",2,2,"SCREENING 2","SCREENING","2013-09-19",-2],
[800,"CDISCPILOT01","VS","CDISC010",16,"PULSE","Pulse Rate","STANDING","90","beats/min","90",90,"beats/min","","","",3,2,"SCREENING 2","SCREENING","2013-09-19",-2],
[801,"CDISCPILOT01","VS","CDISC010",17,"PULSE","Pulse Rate","SUPINE","98","beats/min","98",98,"beats/min","","","",1,3,"BASELINE","SCREENING","2013-09-21",1],
[802,"CDISCPILOT01","VS","CDISC010",18,"PULSE","Pulse Rate","STANDING","104","beats/min","104",104,"beats/min","","","",2,3,"BASELINE","SCREENING","2013-09-21",1],
[803,"CDISCPILOT01","VS","CDISC010",19,"PULSE","Pulse Rate","STANDING","88","beats/min","88",88,"beats/min","","","Y",3,3,"BASELINE","SCREENING","2013-09-21",1],
[804,"CDISCPILOT01","VS","CDISC010",20,"SYSBP","Systolic Blood Pressure","SUPINE","200","mmHg","200",200,"mmHg","","","",1,1,"SCREENING 1","SCREENING","2013-09-08",-13],
[805,"CDISCPILOT01","VS","CDISC010",21,"SYSBP","Systolic Blood Pressure","STANDING","200","mmHg","200",200,"mmHg","","","",2,1,"SCREENING 1","SCREENING","2013-09-08",-13],
[806,"CDISCPILOT01","VS","CDISC010",22,"SYSBP","Systolic Blood Pressure","STANDING","200","mmHg","200",200,"mmHg","","","",3,1,"SCREENING 1","SCREENING","2013-09-08",-13],
[807,"CDISCPILOT01","VS","CDISC010",23,"SYSBP","Systolic Blood Pressure","SUPINE","180","mmHg","180",180,"mmHg","","","",1,2,"SCREENING 2","SCREENING","2013-09-19",-2],
[808,"CDISCPILOT01","VS","CDISC010",24,"SYSBP","Systolic Blood Pressure","STANDING","182","mmHg","182",182,"mmHg","","","",2,2,"SCREENING 2","SCREENING","2013-09-19",-2],
[809,"CDISCPILOT01","VS","CDISC010",25,"SYSBP","Systolic Blood Pressure","STANDING","178","mmHg","178",178,"mmHg","","","",3,2,"SCREENING 2","SCREENING","2013-09-19",-2],
[810,"CDISCPILOT01","VS","CDISC010",26,"SYSBP","Systolic Blood Pressure","SUPINE","160","mmHg","160",160,"mmHg","","","",1,3,"BASELINE","SCREENING","2013-09-21",1],
[811,"CDISCPILOT01","VS","CDISC010",27,"SYSBP","Systolic Blood Pressure","STANDING","160","mmHg","160",160,"mmHg","","","",2,3,"BASELINE","SCREENING","2013-09-21",1],
[812,"CDISCPILOT01","VS","CDISC010",28,"SYSBP","Systolic Blood Pressure","STANDING","160","mmHg","160",160,"mmHg","","","Y",3,3,"BASELINE","SCREENING","2013-09-21",1],
[813,"CDISCPILOT01","VS","CDISC010",29,"TEMP","Temperature","","097.3","F","36.28",36.28,"C","","EAR","",null,1,"SCREENING 1","SCREENING","2013-09-08",-13],
[814,"CDISCPILOT01","VS","CDISC010",30,"TEMP","Temperature","","097.1","F","36.17",36.17,"C","","EAR","",null,2,"SCREENING 2","SCREENING","2013-09-19",-2],
[815,"CDISCPILOT01","VS","CDISC010",31,"TEMP","Temperature","","097.4","F","36.33",36.33,"C","","EAR","",null,3,"BASELINE","SCREENING","2013-09-21",1],
[816,"CDISCPILOT01","VS","CDISC010",32,"WEIGHT","Weight","","120.0","LB","54.43",54.43,"kg","","","",null,1,"SCREENING 1","SCREENING","2013-09-08",-13],
[817,"CDISCPILOT01","VS","CDISC010",33,"WEIGHT","Weight","","120.0","LB","54.43",54.43,"kg","","","",null,3,"BASELINE","SCREENING","2013-09-21",1],
[818,"CDISCPILOT01","VS","CDISC011",1,"DIABP","Diastolic Blood Pressure","STANDING","70","mmHg","70",70,"mmHg","","","",null,1,"SCREENING 1","SCREENING","2012-11-21",-16],
[819,"CDISCPILOT01","VS","CDISC011",2,"DIABP","Diastolic Blood Pressure","STANDING","90","mmHg","90",90,"mmHg","","","",null,2,"SCREENING 2","SCREENING","2012-12-05",-2],
[820,"CDISCPILOT01","VS","CDISC011",3,"DIABP","Diastolic Blood Pressure","STANDING","70","mmHg","70",70,"mmHg","","","Y",null,3,"BASELINE","SCREENING","2012-12-07",1],
[821,"CDISCPILOT01","VS","CDISC011",4,"DIABP","Diastolic Blood Pressure","STANDING","80","mmHg","80",80,"mmHg","","","",null,4,"WEEK 2","TREATMENT","2012-12-21",15],
[822,"CDISCPILOT01","VS","CDISC011",5,"DIABP","Diastolic Blood Pressure","SUPINE","94","mmHg","94",94,"mmHg","","","",1,5,"WEEK 4","TREATMENT","2013-01-01",26],
[823,"CDISCPILOT01","VS","CDISC011",6,"DIABP","Diastolic Blood Pressure","STANDING","90","mmHg","90",90,"mmHg","","","",2,5,"WEEK 4","TREATMENT","2013-01-01",26],
[824,"CDISCPILOT01","VS","CDISC011",7,"DIABP","Diastolic Blood Pressure","STANDING","88","mmHg","88",88,"mmHg","","","",3,5,"WEEK 4","TREATMENT","2013-01-01",26],
[825,"CDISCPILOT01","VS","CDISC011",8,"DIABP","Diastolic Blood Pressure","SUPINE","70","mmHg","70",70,"mmHg","","","",1,7,"WEEK 6","TREATMENT","2013-01-15",40],
[826,"CDISCPILOT01","VS","CDISC011",9,"DIABP","Diastolic Blood Pressure","STANDING","70","mmHg","70",70,"mmHg","","","",2,7,"WEEK 6","TREATMENT","2013-01-15",40],
[827,"CDISCPILOT01","VS","CDISC011",10,"DIABP","Diastolic Blood Pressure","STANDING","72","mmHg","72",72,"mmHg","","","",3,7,"WEEK 6","TREATMENT","2013-01-15",40],
[828,"CDISCPILOT01","VS","CDISC011",11,"DIABP","Diastolic Blood Pressure","SUPINE","78","mmHg","78",78,"mmHg","","","",1,8,"WEEK 8","TREATMENT","2013-01-29",54],
[829,"CDISCPILOT01","VS","CDISC011",12,"DIABP","Diastolic Blood Pressure","STANDING","80","mmHg","80",80,"mmHg","","","",2,8,"WEEK 8","TREATMENT","2013-01-29",54],
[830,"CDISCPILOT01","VS","CDISC011",13,"DIABP","Diastolic Blood Pressure","STANDING","80","mmHg","80",80,"mmHg","","","",3,8,"WEEK 8","TREATMENT","2013-01-29",54],
[831,"CDISCPILOT01","VS","CDISC011",14,"DIABP","Diastolic Blood Pressure","SUPINE","74","mmHg","74",74,"mmHg","","","",1,9,"WEEK 12","TREATMENT","2013-02-27",83],
[832,"CDISCPILOT01","VS","CDISC011",15,"DIABP","Diastolic Blood Pressure","STANDING","84","mmHg","84",84,"mmHg","","","",2,9,"WEEK 12","TREATMENT","2013-02-27",83],
[833,"CDISCPILOT01","VS","CDISC011",16,"DIABP","Diastolic Blood Pressure","STANDING","84","mmHg","84",84,"mmHg","","","",3,9,"WEEK 12","TREATMENT","2013-02-27",83],
[834,"CDISCPILOT01","VS","CDISC011",17,"DIABP","Diastolic Blood Pressure","SUPINE","78","mmHg","78",78,"mmHg","","","",1,10,"WEEK 16","TREATMENT","2013-03-27",111],
[835,"CDISCPILOT01","VS","CDISC011",18,"DIABP","Diastolic Blood Pressure","STANDING","80","mmHg","80",80,"mmHg","","","",2,10,"WEEK 16","TREATMENT","2013-03-27",111],
[836,"CDISCPILOT01","VS","CDISC011",19,"DIABP","Diastolic Blood Pressure","STANDING","74","mmHg","74",74,"mmHg","","","",3,10,"WEEK 16","TREATMENT","2013-03-27",111],
[837,"CDISCPILOT01","VS","CDISC011",20,"DIABP","Diastolic Blood Pressure","SUPINE","82","mmHg","82",82,"mmHg","","","",1,11,"WEEK 20","TREATMENT","2013-04-23",138],
[838,"CDISCPILOT01","VS","CDISC011",21,"DIABP","Diastolic Blood Pressure","STANDING","80","mmHg","80",80,"mmHg","","","",2,11,"WEEK 20","TREATMENT","2013-04-23",138],
[839,"CDISCPILOT01","VS","CDISC011",22,"DIABP","Diastolic Blood Pressure","STANDING","90","mmHg","90",90,"mmHg","","","",3,11,"WEEK 20","TREATMENT","2013-04-23",138],
[840,"CDISCPILOT01","VS","CDISC011",23,"DIABP","Diastolic Blood Pressure","SUPINE","80","mmHg","80",80,"mmHg","","","",1,12,"WEEK 24","TREATMENT","2013-05-22",167],
[841,"CDISCPILOT01","VS","CDISC011",24,"DIABP","Diastolic Blood Pressure","STANDING","82","mmHg","82",82,"mmHg","","","",2,12,"WEEK 24","TREATMENT","2013-05-22",167],
[842,"CDISCPILOT01","VS","CDISC011",25,"DIABP","Diastolic Blood Pressure","STANDING","80","mmHg","80",80,"mmHg","","","",3,12,"WEEK 24","TREATMENT","2013-05-22",167],
[843,"CDISCPILOT01","VS","CDISC011",26,"DIABP","Diastolic Blood Pressure","SUPINE","78","mmHg","78",78,"mmHg","","","",1,13,"WEEK 26","TREATMENT","2013-06-05",181],
[844,"CDISCPILOT01","VS","CDISC011",27,"DIABP","Diastolic Blood Pressure","STANDING","74","mmHg","74",74,"mmHg","","","",2,13,"WEEK 26","TREATMENT","2013-06-05",181],
[845,"CDISCPILOT01","VS","CDISC011",28,"DIABP","Diastolic Blood Pressure","STANDING","72","mmHg","72",72,"mmHg","","","",3,13,"WEEK 26","TREATMENT","2013-06-05",181],
[846,"CDISCPILOT01","VS","CDISC011",29,"HEIGHT","Height","","075.0","in","190.5",190.5,"cm","","","",null,1,"SCREENING 1","SCREENING","2012-11-21",-16],
[847,"CDISCPILOT01","VS","CDISC011",30,"PULSE","Pulse Rate","STANDING","68","beats/min","68",68,"beats/min","","","",null,1,"SCREENING 1","SCREENING","2012-11-21",-16],
[848,"CDISCPILOT01","VS","CDISC011",31,"PULSE","Pulse Rate","STANDING","62","beats/min","62",62,"beats/min","","","",null,2,"SCREENING 2","SCREENING","2012-12-05",-2],
[849,"CDISCPILOT01","VS","CDISC011",32,"PULSE","Pulse Rate","STANDING","64","beats/min","64",64,"beats/min","","","Y",null,3,"BASELINE","SCREENING","2012-12-07",1],
[850,"CDISCPILOT01","VS","CDISC011",33,"PULSE","Pulse Rate","STANDING","70","beats/min","70",70,"beats/min","","","",null,4,"WEEK 2","TREATMENT","2012-12-21",15],
[851,"CDISCPILOT01","VS","CDISC011",34,"PULSE","Pulse Rate","SUPINE","64","beats/min","64",64,"beats/min","","","",1,5,"WEEK 4","TREATMENT","2013-01-01",26],
[852,"CDISCPILOT01","VS","CDISC011",35,"PULSE","Pulse Rate","STANDING","68","beats/min","68",68,"beats/min","","","",2,5,"WEEK 4","TREATMENT","2013-01-01",26],
[853,"CDISCPILOT01","VS","CDISC011",36,"PULSE","Pulse Rate","STANDING","84","beats/min","84",84,"beats/min","","","",3,5,"WEEK 4","TREATMENT","2013-01-01",26],
[854,"CDISCPILOT01","VS","CDISC011",37,"PULSE","Pulse Rate","SUPINE","60","beats/min","60",60,"beats/min","","","",1,7,"WEEK 6","TREATMENT","2013-01-15",40],
[855,"CDISCPILOT01","VS","CDISC011",38,"PULSE","Pulse Rate","STANDING","72","beats/min","72",72,"beats/min","","","",2,7,"WEEK 6","TREATMENT","2013-01-15",40],
[856,"CDISCPILOT01","VS","CDISC011",39,"PULSE","Pulse Rate","STANDING","70","beats/min","70",70,"beats/min","","","",3,7,"WEEK 6","TREATMENT","2013-01-15",40],
[857,"CDISCPILOT01","VS","CDISC011",40,"PULSE","Pulse Rate","SUPINE","60","beats/min","60",60,"beats/min","","","",1,8,"WEEK 8","TREATMENT","2013-01-29",54],
[858,"CDISCPILOT01","VS","CDISC011",41,"PULSE","Pulse Rate","STANDING","66","beats/min","66",66,"beats/min","","","",2,8,"WEEK 8","TREATMENT","2013-01-29",54],
[859,"CDISCPILOT01","VS","CDISC011",42,"PULSE","Pulse Rate","STANDING","68","beats/min","68",68,"beats/min","","","",3,8,"WEEK 8","TREATMENT","2013-01-29",54],
[860,"CDISCPILOT01","VS","CDISC011",43,"PULSE","Pulse Rate","SUPINE","64","beats/min","64",64,"beats/min","","","",1,9,"WEEK 12","TREATMENT","2013-02-27",83],
[861,"CDISCPILOT01","VS","CDISC011",44,"PULSE","Pulse Rate","STANDING","84","beats/min","84",84,"beats/min","","","",2,9,"WEEK 12","TREATMENT","2013-02-27",83],
[862,"CDISCPILOT01","VS","CDISC011",45,"PULSE","Pulse Rate","STANDING","80","beats/min","80",80,"beats/min","","","",3,9,"WEEK 12","TREATMENT","2013-02-27",83],
[863,"CDISCPILOT01","VS","CDISC011",46,"PULSE","Pulse Rate","SUPINE","60","beats/min","60",60,"beats/min","","","",1,10,"WEEK 16","TREATMENT","2013-03-27",111],
[864,"CDISCPILOT01","VS","CDISC011",47,"PULSE","Pulse Rate","STANDING","64","beats/min","64",64,"beats/min","","","",2,10,"WEEK 16","TREATMENT","2013-03-27",111],
[865,"CDISCPILOT01","VS","CDISC011",48,"PULSE","Pulse Rate","STANDING","72","beats/min","72",72,"beats/min","","","",3,10,"WEEK 16","TREATMENT","2013-03-27",111],
[866,"CDISCPILOT01","VS","CDISC011",49,"PULSE","Pulse Rate","SUPINE","76","beats/min","76",76,"beats/min","","","",1,11,"WEEK 20","TREATMENT","2013-04-23",138],
[867,"CDISCPILOT01","VS","CDISC011",50,"PULSE","Pulse Rate","STANDING","88","beats/min","88",88,"beats/min","","","",2,11,"WEEK 20","TREATMENT","2013-04-23",138],
[868,"CDISCPILOT01","VS","CDISC011",51,"PULSE","Pulse Rate","STANDING","90","beats/min","90",90,"beats/min","","","",3,11,"WEEK 20","TREATMENT","2013-04-23",138],
[869,"CDISCPILOT01","VS","CDISC011",52,"PULSE","Pulse Rate","SUPINE","80","beats/min","80",80,"beats/min","","","",1,12,"WEEK 24","TREATMENT","2013-05-22",167],
[870,"CDISCPILOT01","VS","CDISC011",53,"PULSE","Pulse Rate","STANDING","84","beats/min","84",84,"beats/min","","","",2,12,"WEEK 24","TREATMENT","2013-05-22",167],
[871,"CDISCPILOT01","VS","CDISC011",54,"PULSE","Pulse Rate","STANDING","84","beats/min","84",84,"beats/min","","","",3,12,"WEEK 24","TREATMENT","2013-05-22",167],
[872,"CDISCPILOT01","VS","CDISC011",55,"PULSE","Pulse Rate","SUPINE","56","beats/min","56",56,"beats/min","","","",1,13,"WEEK 26","TREATMENT","2013-06-05",181],
[873,"CDISCPILOT01","VS","CDISC011",56,"PULSE","Pulse Rate","STANDING","60","beats/min","60",60,"beats/min","","","",2,13,"WEEK 26","TREATMENT","2013-06-05",181],
[874,"CDISCPILOT01","VS","CDISC011",57,"PULSE","Pulse Rate","STANDING","60","beats/min","60",60,"beats/min","","","",3,13,"WEEK 26","TREATMENT","2013-06-05",181],
[875,"CDISCPILOT01","VS","CDISC011",58,"SYSBP","Systolic Blood Pressure","STANDING","140","mmHg","140",140,"mmHg","","","",null,1,"SCREENING 1","SCREENING","2012-11-21",-16],
[876,"CDISCPILOT01","VS","CDISC011",59,"SYSBP","Systolic Blood Pressure","STANDING","140","mmHg","140",140,"mmHg","","","",null,2,"SCREENING 2","SCREENING","2012-12-05",-2],
[877,"CDISCPILOT01","VS","CDISC011",60,"SYSBP","Systolic Blood Pressure","STANDING","130","mmHg","130",130,"mmHg","","","Y",null,3,"BASELINE","SCREENING","2012-12-07",1],
[878,"CDISCPILOT01","VS","CDISC011",61,"SYSBP","Systolic Blood Pressure","STANDING","150","mmHg","150",150,"mmHg","","","",null,4,"WEEK 2","TREATMENT","2012-12-21",15],
[879,"CDISCPILOT01","VS","CDISC011",62,"SYSBP","Systolic Blood Pressure","SUPINE","154","mmHg","154",154,"mmHg","","","",1,5,"WEEK 4","TREATMENT","2013-01-01",26],
[880,"CDISCPILOT01","VS","CDISC011",63,"SYSBP","Systolic Blood Pressure","STANDING","134","mmHg","134",134,"mmHg","","","",2,5,"WEEK 4","TREATMENT","2013-01-01",26],
[881,"CDISCPILOT01","VS","CDISC011",64,"SYSBP","Systolic Blood Pressure","STANDING","128","mmHg","128",128,"mmHg","","","",3,5,"WEEK 4","TREATMENT","2013-01-01",26],
[882,"CDISCPILOT01","VS","CDISC011",65,"SYSBP","Systolic Blood Pressure","SUPINE","140","mmHg","140",140,"mmHg","","","",1,7,"WEEK 6","TREATMENT","2013-01-15",40],
[883,"CDISCPILOT01","VS","CDISC011",66,"SYSBP","Systolic Blood Pressure","STANDING","130","mmHg","130",130,"mmHg","","","",2,7,"WEEK 6","TREATMENT","2013-01-15",40],
[884,"CDISCPILOT01","VS","CDISC011",67,"SYSBP","Systolic Blood Pressure","STANDING","130","mmHg","130",130,"mmHg","","","",3,7,"WEEK 6","TREATMENT","2013-01-15",40],
[885,"CDISCPILOT01","VS","CDISC011",68,"SYSBP","Systolic Blood Pressure","SUPINE","144","mmHg","144",144,"mmHg","","","",1,8,"WEEK 8","TREATMENT","2013-01-29",54],
[886,"CDISCPILOT01","VS","CDISC011",69,"SYSBP","Systolic Blood Pressure","STANDING","140","mmHg","140",140,"mmHg","","","",2,8,"WEEK 8","TREATMENT","2013-01-29",54],
[887,"CDISCPILOT01","VS","CDISC011",70,"SYSBP","Systolic Blood Pressure","STANDING","140","mmHg","140",140,"mmHg","","","",3,8,"WEEK 8","TREATMENT","2013-01-29",54],
[888,"CDISCPILOT01","VS","CDISC011",71,"SYSBP","Systolic Blood Pressure","SUPINE","130","mmHg","130",130,"mmHg","","","",1,9,"WEEK 12","TREATMENT","2013-02-27",83],
[889,"CDISCPILOT01","VS","CDISC011",72,"SYSBP","Systolic Blood Pressure","STANDING","124","mmHg","124",124,"mmHg","","","",2,9,"WEEK 12","TREATMENT","2013-02-27",83],
[890,"CDISCPILOT01","VS","CDISC011",73,"SYSBP","Systolic Blood Pressure","STANDING","124","mmHg","124",124,"mmHg","","","",3,9,"WEEK 12","TREATMENT","2013-02-27",83],
[891,"CDISCPILOT01","VS","CDISC011",74,"SYSBP","Systolic Blood Pressure","SUPINE","140","mmHg","140",140,"mmHg","","","",1,10,"WEEK 16","TREATMENT","2013-03-27",111],
[892,"CDISCPILOT01","VS","CDISC011",75,"SYSBP","Systolic Blood Pressure","STANDING","130","mmHg","130",130,"mmHg","","","",2,10,"WEEK 16","TREATMENT","2013-03-27",111],
[893,"CDISCPILOT01","VS","CDISC011",76,"SYSBP","Systolic Blood Pressure","STANDING","130","mmHg","130",130,"mmHg","","","",3,10,"WEEK 16","TREATMENT","2013-03-27",111],
[894,"CDISCPILOT01","VS","CDISC011",77,"SYSBP","Systolic Blood Pressure","SUPINE","140","mmHg","140",140,"mmHg","","","",1,11,"WEEK 20","TREATMENT","2013-04-23",138],
[895,"CDISCPILOT01","VS","CDISC011",78,"SYSBP","Systolic Blood Pressure","STANDING","130","mmHg","130",130,"mmHg","","","",2,11,"WEEK 20","TREATMENT","2013-04-23",138],
[896,"CDISCPILOT01","VS","CDISC011",79,"SYSBP","Systolic Blood Pressure","STANDING","138","mmHg","138",138,"mmHg","","","",3,11,"WEEK 20","TREATMENT","2013-04-23",138],
[897,"CDISCPILOT01","VS","CDISC011",80,"SYSBP","Systolic Blood Pressure","SUPINE","150","mmHg","150",150,"mmHg","","","",1,12,"WEEK 24","TREATMENT","2013-05-22",167],
[898,"CDISCPILOT01","VS","CDISC011",81,"SYSBP","Systolic Blood Pressure","STANDING","130","mmHg","130",130,"mmHg","","","",2,12,"WEEK 24","TREATMENT","2013-05-22",167],
[899,"CDISCPILOT01","VS","CDISC011",82,"SYSBP","Systolic Blood Pressure","STANDING","140","mmHg","140",140,"mmHg","","","",3,12,"WEEK 24","TREATMENT","2013-05-22",167],
[900,"CDISCPILOT01","VS","CDISC011",83,"SYSBP","Systolic Blood Pressure","SUPINE","150","mmHg","150",150,"mmHg","","","",1,13,"WEEK 26","TREATMENT","2013-06-05",181],
[901,"CDISCPILOT01","VS","CDISC011",84,"SYSBP","Systolic Blood Pressure","STANDING","142","mmHg","142",142,"mmHg","","","",2,13,"WEEK 26","TREATMENT","2013-06-05",181],
[902,"CDISCPILOT01","VS","CDISC011",85,"SYSBP","Systolic Blood Pressure","STANDING","134","mmHg","134",134,"mmHg","","","",3,13,"WEEK 26","TREATMENT","2013-06-05",181],
[903,"CDISCPILOT01","VS","CDISC011",86,"TEMP","Temperature","","097.2","F","36.22",36.22,"C","","EAR","",null,1,"SCREENING 1","SCREENING","2012-11-21",-16],
[904,"CDISCPILOT01","VS","CDISC011",87,"TEMP","Temperature","","97.0","F","36.11",36.11,"C","","EAR","",null,2,"SCREENING 2","SCREENING","2012-12-05",-2],
[905,"CDISCPILOT01","VS","CDISC011",88,"TEMP","Temperature","","097.6","F","36.44",36.44,"C","","EAR","",null,3,"BASELINE","SCREENING","2012-12-07",1],
[906,"CDISCPILOT01","VS","CDISC011",89,"TEMP","Temperature","","098.2","F","36.78",36.78,"C","","EAR","",null,4,"WEEK 2","TREATMENT","2012-12-21",15],
[907,"CDISCPILOT01","VS","CDISC011",90,"TEMP","Temperature","","097.1","F","36.17",36.17,"C","","EAR","",null,5,"WEEK 4","TREATMENT","2013-01-01",26],
[908,"CDISCPILOT01","VS","CDISC011",91,"TEMP","Temperature","","097.3","F","36.28",36.28,"C","","EAR","",null,7,"WEEK 6","TREATMENT","2013-01-15",40],
[909,"CDISCPILOT01","VS","CDISC011",92,"TEMP","Temperature","","097.3","F","36.28",36.28,"C","","EAR","",null,8,"WEEK 8","TREATMENT","2013-01-29",54],
[910,"CDISCPILOT01","VS","CDISC011",93,"TEMP","Temperature","","097.3","F","36.28",36.28,"C","","EAR","",null,9,"WEEK 12","TREATMENT","2013-02-27",83],
[911,"CDISCPILOT01","VS","CDISC011",94,"TEMP","Temperature","","098.3","F","36.83",36.83,"C","","EAR","",null,10,"WEEK 16","TREATMENT","2013-03-27",111],
[912,"CDISCPILOT01","VS","CDISC011",95,"TEMP","Temperature","","096.6","F","35.89",35.89,"C","","EAR","",null,11,"WEEK 20","TREATMENT","2013-04-23",138],
[913,"CDISCPILOT01","VS","CDISC011",96,"TEMP","Temperature","","097.1","F","36.17",36.17,"C","","EAR","",null,12,"WEEK 24","TREATMENT","2013-05-22",167],
[914,"CDISCPILOT01","VS","CDISC011",97,"TEMP","Temperature","","097.8","F","36.56",36.56,"C","","ORAL CAVITY","",null,13,"WEEK 26","TREATMENT","2013-06-05",181],
[915,"CDISCPILOT01","VS","CDISC011",98,"WEIGHT","Weight","","194.0","LB","88",88,"kg","","","",null,1,"SCREENING 1","SCREENING","2012-11-21",-16],
[916,"CDISCPILOT01","VS","CDISC011",99,"WEIGHT","Weight","","193.0","LB","87.54",87.54,"kg","","","",null,3,"BASELINE","SCREENING","2012-12-07",1],
[917,"CDISCPILOT01","VS","CDISC011",100,"WEIGHT","Weight","","193.0","LB","87.54",87.54,"kg","","","",null,4,"WEEK 2","TREATMENT","2012-12-21",15],
[918,"CDISCPILOT01","VS","CDISC011",101,"WEIGHT","Weight","","188.0","LB","85.28",85.28,"kg","","","",null,5,"WEEK 4","TREATMENT","2013-01-01",26],
[919,"CDISCPILOT01","VS","CDISC011",102,"WEIGHT","Weight","","191.0","LB","86.64",86.64,"kg","","","",null,7,"WEEK 6","TREATMENT","2013-01-15",40],
[920,"CDISCPILOT01","VS","CDISC011",103,"WEIGHT","Weight","","190.0","LB","86.18",86.18,"kg","","","",null,8,"WEEK 8","TREATMENT","2013-01-29",54],
[921,"CDISCPILOT01","VS","CDISC011",104,"WEIGHT","Weight","","185.0","LB","83.92",83.92,"kg","","","",null,9,"WEEK 12","TREATMENT","2013-02-27",83],
[922,"CDISCPILOT01","VS","CDISC011",105,"WEIGHT","Weight","","187.0","LB","84.82",84.82,"kg","","","",null,10,"WEEK 16","TREATMENT","2013-03-27",111],
[923,"CDISCPILOT01","VS","CDISC011",106,"WEIGHT","Weight","","185.0","LB","83.92",83.92,"kg","","","",null,11,"WEEK 20","TREATMENT","2013-04-23",138],
[924,"CDISCPILOT01","VS","CDISC011",107,"WEIGHT","Weight","","183.0","LB","83.01",83.01,"kg","","","",null,12,"WEEK 24","TREATMENT","2013-05-22",167],
[925,"CDISCPILOT01","VS","CDISC011",108,"WEIGHT","Weight","","185.0","LB","83.92",83.92,"kg","","","",null,13,"WEEK 26","TREATMENT","2013-06-05",181],
[926,"CDISCPILOT01","VS","CDISC012",1,"DIABP","Diastolic Blood Pressure","SUPINE","78","mmHg","78",78,"mmHg","","","",1,1,"SCREENING 1","SCREENING","2013-08-24",-10],
[927,"CDISCPILOT01","VS","CDISC012",2,"DIABP","Diastolic Blood Pressure","STANDING","58","mmHg","58",58,"mmHg","","","",2,1,"SCREENING 1","SCREENING","2013-08-24",-10],
[928,"CDISCPILOT01","VS","CDISC012",3,"DIABP","Diastolic Blood Pressure","STANDING","80","mmHg","80",80,"mmHg","","","",3,1,"SCREENING 1","SCREENING","2013-08-24",-10],
[929,"CDISCPILOT01","VS","CDISC012",4,"DIABP","Diastolic Blood Pressure","SUPINE","78","mmHg","78",78,"mmHg","","","",1,2,"SCREENING 2","SCREENING","2013-09-01",-2],
[930,"CDISCPILOT01","VS","CDISC012",5,"DIABP","Diastolic Blood Pressure","STANDING","70","mmHg","70",70,"mmHg","","","",2,2,"SCREENING 2","SCREENING","2013-09-01",-2],
[931,"CDISCPILOT01","VS","CDISC012",6,"DIABP","Diastolic Blood Pressure","STANDING","70","mmHg","70",70,"mmHg","","","",3,2,"SCREENING 2","SCREENING","2013-09-01",-2],
[932,"CDISCPILOT01","VS","CDISC012",7,"DIABP","Diastolic Blood Pressure","SUPINE","80","mmHg","80",80,"mmHg","","","",1,3,"BASELINE","SCREENING","2013-09-03",1],
[933,"CDISCPILOT01","VS","CDISC012",8,"DIABP","Diastolic Blood Pressure","STANDING","76","mmHg","76",76,"mmHg","","","",2,3,"BASELINE","SCREENING","2013-09-03",1],
[934,"CDISCPILOT01","VS","CDISC012",9,"DIABP","Diastolic Blood Pressure","STANDING","74","mmHg","74",74,"mmHg","","","Y",3,3,"BASELINE","SCREENING","2013-09-03",1],
[935,"CDISCPILOT01","VS","CDISC012",10,"DIABP","Diastolic Blood Pressure","SUPINE","80","mmHg","80",80,"mmHg","","","",1,4,"WEEK 2","TREATMENT","2013-09-21",19],
[936,"CDISCPILOT01","VS","CDISC012",11,"DIABP","Diastolic Blood Pressure","STANDING","70","mmHg","70",70,"mmHg","","","",2,4,"WEEK 2","TREATMENT","2013-09-21",19],
[937,"CDISCPILOT01","VS","CDISC012",12,"DIABP","Diastolic Blood Pressure","STANDING","72","mmHg","72",72,"mmHg","","","",3,4,"WEEK 2","TREATMENT","2013-09-21",19],
[938,"CDISCPILOT01","VS","CDISC012",13,"DIABP","Diastolic Blood Pressure","SUPINE","84","mmHg","84",84,"mmHg","","","",1,5,"WEEK 4","TREATMENT","2013-10-05",33],
[939,"CDISCPILOT01","VS","CDISC012",14,"DIABP","Diastolic Blood Pressure","STANDING","76","mmHg","76",76,"mmHg","","","",2,5,"WEEK 4","TREATMENT","2013-10-05",33],
[940,"CDISCPILOT01","VS","CDISC012",15,"DIABP","Diastolic Blood Pressure","STANDING","82","mmHg","82",82,"mmHg","","","",3,5,"WEEK 4","TREATMENT","2013-10-05",33],
[941,"CDISCPILOT01","VS","CDISC012",16,"DIABP","Diastolic Blood Pressure","SUPINE","82","mmHg","82",82,"mmHg","","","",1,7,"WEEK 6","TREATMENT","2013-10-19",47],
[942,"CDISCPILOT01","VS","CDISC012",17,"DIABP","Diastolic Blood Pressure","STANDING","78","mmHg","78",78,"mmHg","","","",2,7,"WEEK 6","TREATMENT","2013-10-19",47],
[943,"CDISCPILOT01","VS","CDISC012",18,"DIABP","Diastolic Blood Pressure","STANDING","82","mmHg","82",82,"mmHg","","","",3,7,"WEEK 6","TREATMENT","2013-10-19",47],
[944,"CDISCPILOT01","VS","CDISC012",19,"DIABP","Diastolic Blood Pressure","SUPINE","64","mmHg","64",64,"mmHg","","","",1,8,"WEEK 8","TREATMENT","2013-11-05",64],
[945,"CDISCPILOT01","VS","CDISC012",20,"DIABP","Diastolic Blood Pressure","STANDING","60","mmHg","60",60,"mmHg","","","",2,8,"WEEK 8","TREATMENT","2013-11-05",64],
[946,"CDISCPILOT01","VS","CDISC012",21,"DIABP","Diastolic Blood Pressure","STANDING","60","mmHg","60",60,"mmHg","","","",3,8,"WEEK 8","TREATMENT","2013-11-05",64],
[947,"CDISCPILOT01","VS","CDISC012",22,"DIABP","Diastolic Blood Pressure","SUPINE","68","mmHg","68",68,"mmHg","","","",1,9,"WEEK 12","TREATMENT","2013-12-02",91],
[948,"CDISCPILOT01","VS","CDISC012",23,"DIABP","Diastolic Blood Pressure","STANDING","60","mmHg","60",60,"mmHg","","","",2,9,"WEEK 12","TREATMENT","2013-12-02",91],
[949,"CDISCPILOT01","VS","CDISC012",24,"DIABP","Diastolic Blood Pressure","STANDING","70","mmHg","70",70,"mmHg","","","",3,9,"WEEK 12","TREATMENT","2013-12-02",91],
[950,"CDISCPILOT01","VS","CDISC012",25,"DIABP","Diastolic Blood Pressure","SUPINE","62","mmHg","62",62,"mmHg","","","",1,10,"WEEK 16","TREATMENT","2014-01-12",132],
[951,"CDISCPILOT01","VS","CDISC012",26,"DIABP","Diastolic Blood Pressure","STANDING","80","mmHg","80",80,"mmHg","","","",2,10,"WEEK 16","TREATMENT","2014-01-12",132],
[952,"CDISCPILOT01","VS","CDISC012",27,"DIABP","Diastolic Blood Pressure","STANDING","80","mmHg","80",80,"mmHg","","","",3,10,"WEEK 16","TREATMENT","2014-01-12",132],
[953,"CDISCPILOT01","VS","CDISC012",28,"DIABP","Diastolic Blood Pressure","SUPINE","70","mmHg","70",70,"mmHg","","","",1,11,"WEEK 20","TREATMENT","2014-01-28",148],
[954,"CDISCPILOT01","VS","CDISC012",29,"DIABP","Diastolic Blood Pressure","STANDING","64","mmHg","64",64,"mmHg","","","",2,11,"WEEK 20","TREATMENT","2014-01-28",148],
[955,"CDISCPILOT01","VS","CDISC012",30,"DIABP","Diastolic Blood Pressure","STANDING","60","mmHg","60",60,"mmHg","","","",3,11,"WEEK 20","TREATMENT","2014-01-28",148],
[956,"CDISCPILOT01","VS","CDISC012",31,"HEIGHT","Height","","067.0","in","170.18",170.18,"cm","","","",null,1,"SCREENING 1","SCREENING","2013-08-24",-10],
[957,"CDISCPILOT01","VS","CDISC012",32,"PULSE","Pulse Rate","SUPINE","68","beats/min","68",68,"beats/min","","","",1,1,"SCREENING 1","SCREENING","2013-08-24",-10],
[958,"CDISCPILOT01","VS","CDISC012",33,"PULSE","Pulse Rate","STANDING","76","beats/min","76",76,"beats/min","","","",2,1,"SCREENING 1","SCREENING","2013-08-24",-10],
[959,"CDISCPILOT01","VS","CDISC012",34,"PULSE","Pulse Rate","STANDING","80","beats/min","80",80,"beats/min","","","",3,1,"SCREENING 1","SCREENING","2013-08-24",-10],
[960,"CDISCPILOT01","VS","CDISC012",35,"PULSE","Pulse Rate","SUPINE","64","beats/min","64",64,"beats/min","","","",1,2,"SCREENING 2","SCREENING","2013-09-01",-2],
[961,"CDISCPILOT01","VS","CDISC012",36,"PULSE","Pulse Rate","STANDING","60","beats/min","60",60,"beats/min","","","",2,2,"SCREENING 2","SCREENING","2013-09-01",-2],
[962,"CDISCPILOT01","VS","CDISC012",37,"PULSE","Pulse Rate","STANDING","68","beats/min","68",68,"beats/min","","","",3,2,"SCREENING 2","SCREENING","2013-09-01",-2],
[963,"CDISCPILOT01","VS","CDISC012",38,"PULSE","Pulse Rate","SUPINE","66","beats/min","66",66,"beats/min","","","",1,3,"BASELINE","SCREENING","2013-09-03",1],
[964,"CDISCPILOT01","VS","CDISC012",39,"PULSE","Pulse Rate","STANDING","72","beats/min","72",72,"beats/min","","","",2,3,"BASELINE","SCREENING","2013-09-03",1],
[965,"CDISCPILOT01","VS","CDISC012",40,"PULSE","Pulse Rate","STANDING","72","beats/min","72",72,"beats/min","","","Y",3,3,"BASELINE","SCREENING","2013-09-03",1],
[966,"CDISCPILOT01","VS","CDISC012",41,"PULSE","Pulse Rate","SUPINE","60","beats/min","60",60,"beats/min","","","",1,4,"WEEK 2","TREATMENT","2013-09-21",19],
[967,"CDISCPILOT01","VS","CDISC012",42,"PULSE","Pulse Rate","STANDING","64","beats/min","64",64,"beats/min","","","",2,4,"WEEK 2","TREATMENT","2013-09-21",19],
[968,"CDISCPILOT01","VS","CDISC012",43,"PULSE","Pulse Rate","STANDING","64","beats/min","64",64,"beats/min","","","",3,4,"WEEK 2","TREATMENT","2013-09-21",19],
[969,"CDISCPILOT01","VS","CDISC012",44,"PULSE","Pulse Rate","SUPINE","64","beats/min","64",64,"beats/min","","","",1,5,"WEEK 4","TREATMENT","2013-10-05",33],
[970,"CDISCPILOT01","VS","CDISC012",45,"PULSE","Pulse Rate","STANDING","72","beats/min","72",72,"beats/min","","","",2,5,"WEEK 4","TREATMENT","2013-10-05",33],
[971,"CDISCPILOT01","VS","CDISC012",46,"PULSE","Pulse Rate","STANDING","64","beats/min","64",64,"beats/min","","","",3,5,"WEEK 4","TREATMENT","2013-10-05",33],
[972,"CDISCPILOT01","VS","CDISC012",47,"PULSE","Pulse Rate","SUPINE","60","beats/min","60",60,"beats/min","","","",1,7,"WEEK 6","TREATMENT","2013-10-19",47],
[973,"CDISCPILOT01","VS","CDISC012",48,"PULSE","Pulse Rate","STANDING","68","beats/min","68",68,"beats/min","","","",2,7,"WEEK 6","TREATMENT","2013-10-19",47],
[974,"CDISCPILOT01","VS","CDISC012",49,"PULSE","Pulse Rate","STANDING","72","beats/min","72",72,"beats/min","","","",3,7,"WEEK 6","TREATMENT","2013-10-19",47],
[975,"CDISCPILOT01","VS","CDISC012",50,"PULSE","Pulse Rate","SUPINE","60","beats/min","60",60,"beats/min","","","",1,8,"WEEK 8","TREATMENT","2013-11-05",64],
[976,"CDISCPILOT01","VS","CDISC012",51,"PULSE","Pulse Rate","STANDING","64","beats/min","64",64,"beats/min","","","",2,8,"WEEK 8","TREATMENT","2013-11-05",64],
[977,"CDISCPILOT01","VS","CDISC012",52,"PULSE","Pulse Rate","STANDING","68","beats/min","68",68,"beats/min","","","",3,8,"WEEK 8","TREATMENT","2013-11-05",64],
[978,"CDISCPILOT01","VS","CDISC012",53,"PULSE","Pulse Rate","SUPINE","60","beats/min","60",60,"beats/min","","","",1,9,"WEEK 12","TREATMENT","2013-12-02",91],
[979,"CDISCPILOT01","VS","CDISC012",54,"PULSE","Pulse Rate","STANDING","60","beats/min","60",60,"beats/min","","","",2,9,"WEEK 12","TREATMENT","2013-12-02",91],
[980,"CDISCPILOT01","VS","CDISC012",55,"PULSE","Pulse Rate","STANDING","60","beats/min","60",60,"beats/min","","","",3,9,"WEEK 12","TREATMENT","2013-12-02",91],
[981,"CDISCPILOT01","VS","CDISC012",56,"PULSE","Pulse Rate","SUPINE","64","beats/min","64",64,"beats/min","","","",1,10,"WEEK 16","TREATMENT","2014-01-12",132],
[982,"CDISCPILOT01","VS","CDISC012",57,"PULSE","Pulse Rate","STANDING","68","beats/min","68",68,"beats/min","","","",2,10,"WEEK 16","TREATMENT","2014-01-12",132],
[983,"CDISCPILOT01","VS","CDISC012",58,"PULSE","Pulse Rate","STANDING","64","beats/min","64",64,"beats/min","","","",3,10,"WEEK 16","TREATMENT","2014-01-12",132],
[984,"CDISCPILOT01","VS","CDISC012",59,"PULSE","Pulse Rate","SUPINE","55","beats/min","55",55,"beats/min","","","",1,11,"WEEK 20","TREATMENT","2014-01-28",148],
[985,"CDISCPILOT01","VS","CDISC012",60,"PULSE","Pulse Rate","STANDING","64","beats/min","64",64,"beats/min","","","",2,11,"WEEK 20","TREATMENT","2014-01-28",148],
[986,"CDISCPILOT01","VS","CDISC012",61,"PULSE","Pulse Rate","STANDING","62","beats/min","62",62,"beats/min","","","",3,11,"WEEK 20","TREATMENT","2014-01-28",148],
[987,"CDISCPILOT01","VS","CDISC012",62,"SYSBP","Systolic Blood Pressure","SUPINE","120","mmHg","120",120,"mmHg","","","",1,1,"SCREENING 1","SCREENING","2013-08-24",-10],
[988,"CDISCPILOT01","VS","CDISC012",63,"SYSBP","Systolic Blood Pressure","STANDING","90","mmHg","90",90,"mmHg","","","",2,1,"SCREENING 1","SCREENING","2013-08-24",-10],
[989,"CDISCPILOT01","VS","CDISC012",64,"SYSBP","Systolic Blood Pressure","STANDING","120","mmHg","120",120,"mmHg","","","",3,1,"SCREENING 1","SCREENING","2013-08-24",-10],
[990,"CDISCPILOT01","VS","CDISC012",65,"SYSBP","Systolic Blood Pressure","SUPINE","120","mmHg","120",120,"mmHg","","","",1,2,"SCREENING 2","SCREENING","2013-09-01",-2],
[991,"CDISCPILOT01","VS","CDISC012",66,"SYSBP","Systolic Blood Pressure","STANDING","120","mmHg","120",120,"mmHg","","","",2,2,"SCREENING 2","SCREENING","2013-09-01",-2],
[992,"CDISCPILOT01","VS","CDISC012",67,"SYSBP","Systolic Blood Pressure","STANDING","120","mmHg","120",120,"mmHg","","","",3,2,"SCREENING 2","SCREENING","2013-09-01",-2],
[993,"CDISCPILOT01","VS","CDISC012",68,"SYSBP","Systolic Blood Pressure","SUPINE","122","mmHg","122",122,"mmHg","","","",1,3,"BASELINE","SCREENING","2013-09-03",1],
[994,"CDISCPILOT01","VS","CDISC012",69,"SYSBP","Systolic Blood Pressure","STANDING","110","mmHg","110",110,"mmHg","","","",2,3,"BASELINE","SCREENING","2013-09-03",1],
[995,"CDISCPILOT01","VS","CDISC012",70,"SYSBP","Systolic Blood Pressure","STANDING","112","mmHg","112",112,"mmHg","","","Y",3,3,"BASELINE","SCREENING","2013-09-03",1],
[996,"CDISCPILOT01","VS","CDISC012",71,"SYSBP","Systolic Blood Pressure","SUPINE","110","mmHg","110",110,"mmHg","","","",1,4,"WEEK 2","TREATMENT","2013-09-21",19],
[997,"CDISCPILOT01","VS","CDISC012",72,"SYSBP","Systolic Blood Pressure","STANDING","110","mmHg","110",110,"mmHg","","","",2,4,"WEEK 2","TREATMENT","2013-09-21",19],
[998,"CDISCPILOT01","VS","CDISC012",73,"SYSBP","Systolic Blood Pressure","STANDING","110","mmHg","110",110,"mmHg","","","",3,4,"WEEK 2","TREATMENT","2013-09-21",19],
[999,"CDISCPILOT01","VS","CDISC012",74,"SYSBP","Systolic Blood Pressure","SUPINE","124","mmHg","124",124,"mmHg","","","",1,5,"WEEK 4","TREATMENT","2013-10-05",33],
[1000,"CDISCPILOT01","VS","CDISC012",75,"SYSBP","Systolic Blood Pressure","STANDING","116","mmHg","116",116,"mmHg","","","",2,5,"WEEK 4","TREATMENT","2013-10-05",33],
[1001,"CDISCPILOT01","VS","CDISC012",76,"SYSBP","Systolic Blood Pressure","STANDING","120","mmHg","120",120,"mmHg","","","",3,5,"WEEK 4","TREATMENT","2013-10-05",33],
[1002,"CDISCPILOT01","VS","CDISC012",77,"SYSBP","Systolic Blood Pressure","SUPINE","120","mmHg","120",120,"mmHg","","","",1,7,"WEEK 6","TREATMENT","2013-10-19",47],
[1003,"CDISCPILOT01","VS","CDISC012",78,"SYSBP","Systolic Blood Pressure","STANDING","118","mmHg","118",118,"mmHg","","","",2,7,"WEEK 6","TREATMENT","2013-10-19",47],
[1004,"CDISCPILOT01","VS","CDISC012",79,"SYSBP","Systolic Blood Pressure","STANDING","120","mmHg","120",120,"mmHg","","","",3,7,"WEEK 6","TREATMENT","2013-10-19",47],
[1005,"CDISCPILOT01","VS","CDISC012",80,"SYSBP","Systolic Blood Pressure","SUPINE","120","mmHg","120",120,"mmHg","","","",1,8,"WEEK 8","TREATMENT","2013-11-05",64],
[1006,"CDISCPILOT01","VS","CDISC012",81,"SYSBP","Systolic Blood Pressure","STANDING","110","mmHg","110",110,"mmHg","","","",2,8,"WEEK 8","TREATMENT","2013-11-05",64],
[1007,"CDISCPILOT01","VS","CDISC012",82,"SYSBP","Systolic Blood Pressure","STANDING","110","mmHg","110",110,"mmHg","","","",3,8,"WEEK 8","TREATMENT","2013-11-05",64],
[1008,"CDISCPILOT01","VS","CDISC012",83,"SYSBP","Systolic Blood Pressure","SUPINE","118","mmHg","118",118,"mmHg","","","",1,9,"WEEK 12","TREATMENT","2013-12-02",91],
[1009,"CDISCPILOT01","VS","CDISC012",84,"SYSBP","Systolic Blood Pressure","STANDING","112","mmHg","112",112,"mmHg","","","",2,9,"WEEK 12","TREATMENT","2013-12-02",91],
[1010,"CDISCPILOT01","VS","CDISC012",85,"SYSBP","Systolic Blood Pressure","STANDING","122","mmHg","122",122,"mmHg","","","",3,9,"WEEK 12","TREATMENT","2013-12-02",91],
[1011,"CDISCPILOT01","VS","CDISC012",86,"SYSBP","Systolic Blood Pressure","SUPINE","110","mmHg","110",110,"mmHg","","","",1,10,"WEEK 16","TREATMENT","2014-01-12",132],
[1012,"CDISCPILOT01","VS","CDISC012",87,"SYSBP","Systolic Blood Pressure","STANDING","108","mmHg","108",108,"mmHg","","","",2,10,"WEEK 16","TREATMENT","2014-01-12",132],
[1013,"CDISCPILOT01","VS","CDISC012",88,"SYSBP","Systolic Blood Pressure","STANDING","116","mmHg","116",116,"mmHg","","","",3,10,"WEEK 16","TREATMENT","2014-01-12",132],
[1014,"CDISCPILOT01","VS","CDISC012",89,"SYSBP","Systolic Blood Pressure","SUPINE","100","mmHg","100",100,"mmHg","","","",1,11,"WEEK 20","TREATMENT","2014-01-28",148],
[1015,"CDISCPILOT01","VS","CDISC012",90,"SYSBP","Systolic Blood Pressure","STANDING","124","mmHg","124",124,"mmHg","","","",2,11,"WEEK 20","TREATMENT","2014-01-28",148],
[1016,"CDISCPILOT01","VS","CDISC012",91,"SYSBP","Systolic Blood Pressure","STANDING","90","mmHg","90",90,"mmHg","","","",3,11,"WEEK 20","TREATMENT","2014-01-28",148],
[1017,"CDISCPILOT01","VS","CDISC012",92,"TEMP","Temperature","","097.6","F","36.44",36.44,"C","","EAR","",null,1,"SCREENING 1","SCREENING","2013-08-24",-10],
[1018,"CDISCPILOT01","VS","CDISC012",93,"TEMP","Temperature","","096.1","F","35.61",35.61,"C","","EAR","",null,2,"SCREENING 2","SCREENING","2013-09-01",-2],
[1019,"CDISCPILOT01","VS","CDISC012",94,"TEMP","Temperature","","097.1","F","36.17",36.17,"C","","EAR","",null,3,"BASELINE","SCREENING","2013-09-03",1],
[1020,"CDISCPILOT01","VS","CDISC012",95,"TEMP","Temperature","","097.9","F","36.61",36.61,"C","","EAR","",null,4,"WEEK 2","TREATMENT","2013-09-21",19],
[1021,"CDISCPILOT01","VS","CDISC012",96,"TEMP","Temperature","","097.3","F","36.28",36.28,"C","","EAR","",null,5,"WEEK 4","TREATMENT","2013-10-05",33],
[1022,"CDISCPILOT01","VS","CDISC012",97,"TEMP","Temperature","","098.0","F","36.67",36.67,"C","","EAR","",null,7,"WEEK 6","TREATMENT","2013-10-19",47],
[1023,"CDISCPILOT01","VS","CDISC012",98,"TEMP","Temperature","","097.0","F","36.11",36.11,"C","","EAR","",null,8,"WEEK 8","TREATMENT","2013-11-05",64],
[1024,"CDISCPILOT01","VS","CDISC012",99,"TEMP","Temperature","","098.8","F","37.11",37.11,"C","","EAR","",null,9,"WEEK 12","TREATMENT","2013-12-02",91],
[1025,"CDISCPILOT01","VS","CDISC012",100,"TEMP","Temperature","","097.3","F","36.28",36.28,"C","","EAR","",null,10,"WEEK 16","TREATMENT","2014-01-12",132],
[1026,"CDISCPILOT01","VS","CDISC012",101,"TEMP","Temperature","","096.6","F","35.89",35.89,"C","","EAR","",null,11,"WEEK 20","TREATMENT","2014-01-28",148],
[1027,"CDISCPILOT01","VS","CDISC012",102,"WEIGHT","Weight","","157.0","LB","71.22",71.22,"kg","","","",null,1,"SCREENING 1","SCREENING","2013-08-24",-10],
[1028,"CDISCPILOT01","VS","CDISC012",103,"WEIGHT","Weight","","155.0","LB","70.31",70.31,"kg","","","",null,3,"BASELINE","SCREENING","2013-09-03",1],
[1029,"CDISCPILOT01","VS","CDISC012",104,"WEIGHT","Weight","","158.0","LB","71.67",71.67,"kg","","","",null,4,"WEEK 2","TREATMENT","2013-09-21",19],
[1030,"CDISCPILOT01","VS","CDISC012",105,"WEIGHT","Weight","","158.0","LB","71.67",71.67,"kg","","","",null,5,"WEEK 4","TREATMENT","2013-10-05",33],
[1031,"CDISCPILOT01","VS","CDISC012",106,"WEIGHT","Weight","","156.0","LB","70.76",70.76,"kg","","","",null,7,"WEEK 6","TREATMENT","2013-10-19",47],
[1032,"CDISCPILOT01","VS","CDISC012",107,"WEIGHT","Weight","","155.0","LB","70.31",70.31,"kg","","","",null,8,"WEEK 8","TREATMENT","2013-11-05",64],
[1033,"CDISCPILOT01","VS","CDISC012",108,"WEIGHT","Weight","","155.0","LB","70.31",70.31,"kg","","","",null,9,"WEEK 12","TREATMENT","2013-12-02",91],
[1034,"CDISCPILOT01","VS","CDISC012",109,"WEIGHT","Weight","","154.0","LB","69.85",69.85,"kg","","","",null,10,"WEEK 16","TREATMENT","2014-01-12",132],
[1035,"CDISCPILOT01","VS","CDISC012",110,"WEIGHT","Weight","","151.0","LB","68.49",68.49,"kg","","","",null,11,"WEEK 20","TREATMENT","2014-01-28",148],
[1036,"CDISCPILOT01","VS","CDISC013",1,"DIABP","Diastolic Blood Pressure","SUPINE","90","mmHg","90",90,"mmHg","","","",1,1,"SCREENING 1","SCREENING","2013-07-09",-13],
[1037,"CDISCPILOT01","VS","CDISC013",2,"DIABP","Diastolic Blood Pressure","STANDING","90","mmHg","90",90,"mmHg","","","",2,1,"SCREENING 1","SCREENING","2013-07-09",-13],
[1038,"CDISCPILOT01","VS","CDISC013",3,"DIABP","Diastolic Blood Pressure","STANDING","92","mmHg","92",92,"mmHg","","","",3,1,"SCREENING 1","SCREENING","2013-07-09",-13],
[1039,"CDISCPILOT01","VS","CDISC013",4,"DIABP","Diastolic Blood Pressure","SUPINE","76","mmHg","76",76,"mmHg","","","",1,2,"SCREENING 2","SCREENING","2013-07-20",-2],
[1040,"CDISCPILOT01","VS","CDISC013",5,"DIABP","Diastolic Blood Pressure","STANDING","80","mmHg","80",80,"mmHg","","","",2,2,"SCREENING 2","SCREENING","2013-07-20",-2],
[1041,"CDISCPILOT01","VS","CDISC013",6,"DIABP","Diastolic Blood Pressure","STANDING","78","mmHg","78",78,"mmHg","","","",3,2,"SCREENING 2","SCREENING","2013-07-20",-2],
[1042,"CDISCPILOT01","VS","CDISC013",7,"DIABP","Diastolic Blood Pressure","SUPINE","70","mmHg","70",70,"mmHg","","","",1,3,"BASELINE","SCREENING","2013-07-22",1],
[1043,"CDISCPILOT01","VS","CDISC013",8,"DIABP","Diastolic Blood Pressure","STANDING","80","mmHg","80",80,"mmHg","","","",2,3,"BASELINE","SCREENING","2013-07-22",1],
[1044,"CDISCPILOT01","VS","CDISC013",9,"DIABP","Diastolic Blood Pressure","STANDING","78","mmHg","78",78,"mmHg","","","Y",3,3,"BASELINE","SCREENING","2013-07-22",1],
[1045,"CDISCPILOT01","VS","CDISC013",10,"HEIGHT","Height","","062.0","in","157.48",157.48,"cm","","","",null,1,"SCREENING 1","SCREENING","2013-07-09",-13],
[1046,"CDISCPILOT01","VS","CDISC013",11,"PULSE","Pulse Rate","SUPINE","76","beats/min","76",76,"beats/min","","","",1,1,"SCREENING 1","SCREENING","2013-07-09",-13],
[1047,"CDISCPILOT01","VS","CDISC013",12,"PULSE","Pulse Rate","STANDING","76","beats/min","76",76,"beats/min","","","",2,1,"SCREENING 1","SCREENING","2013-07-09",-13],
[1048,"CDISCPILOT01","VS","CDISC013",13,"PULSE","Pulse Rate","STANDING","72","beats/min","72",72,"beats/min","","","",3,1,"SCREENING 1","SCREENING","2013-07-09",-13],
[1049,"CDISCPILOT01","VS","CDISC013",14,"PULSE","Pulse Rate","SUPINE","72","beats/min","72",72,"beats/min","","","",1,2,"SCREENING 2","SCREENING","2013-07-20",-2],
[1050,"CDISCPILOT01","VS","CDISC013",15,"PULSE","Pulse Rate","STANDING","68","beats/min","68",68,"beats/min","","","",2,2,"SCREENING 2","SCREENING","2013-07-20",-2],
[1051,"CDISCPILOT01","VS","CDISC013",16,"PULSE","Pulse Rate","STANDING","68","beats/min","68",68,"beats/min","","","",3,2,"SCREENING 2","SCREENING","2013-07-20",-2],
[1052,"CDISCPILOT01","VS","CDISC013",17,"PULSE","Pulse Rate","SUPINE","88","beats/min","88",88,"beats/min","","","",1,3,"BASELINE","SCREENING","2013-07-22",1],
[1053,"CDISCPILOT01","VS","CDISC013",18,"PULSE","Pulse Rate","STANDING","84","beats/min","84",84,"beats/min","","","",2,3,"BASELINE","SCREENING","2013-07-22",1],
[1054,"CDISCPILOT01","VS","CDISC013",19,"PULSE","Pulse Rate","STANDING","84","beats/min","84",84,"beats/min","","","Y",3,3,"BASELINE","SCREENING","2013-07-22",1],
[1055,"CDISCPILOT01","VS","CDISC013",20,"SYSBP","Systolic Blood Pressure","SUPINE","160","mmHg","160",160,"mmHg","","","",1,1,"SCREENING 1","SCREENING","2013-07-09",-13],
[1056,"CDISCPILOT01","VS","CDISC013",21,"SYSBP","Systolic Blood Pressure","STANDING","154","mmHg","154",154,"mmHg","","","",2,1,"SCREENING 1","SCREENING","2013-07-09",-13],
[1057,"CDISCPILOT01","VS","CDISC013",22,"SYSBP","Systolic Blood Pressure","STANDING","152","mmHg","152",152,"mmHg","","","",3,1,"SCREENING 1","SCREENING","2013-07-09",-13],
[1058,"CDISCPILOT01","VS","CDISC013",23,"SYSBP","Systolic Blood Pressure","SUPINE","142","mmHg","142",142,"mmHg","","","",1,2,"SCREENING 2","SCREENING","2013-07-20",-2],
[1059,"CDISCPILOT01","VS","CDISC013",24,"SYSBP","Systolic Blood Pressure","STANDING","150","mmHg","150",150,"mmHg","","","",2,2,"SCREENING 2","SCREENING","2013-07-20",-2],
[1060,"CDISCPILOT01","VS","CDISC013",25,"SYSBP","Systolic Blood Pressure","STANDING","146","mmHg","146",146,"mmHg","","","",3,2,"SCREENING 2","SCREENING","2013-07-20",-2],
[1061,"CDISCPILOT01","VS","CDISC013",26,"SYSBP","Systolic Blood Pressure","SUPINE","148","mmHg","148",148,"mmHg","","","",1,3,"BASELINE","SCREENING","2013-07-22",1],
[1062,"CDISCPILOT01","VS","CDISC013",27,"SYSBP","Systolic Blood Pressure","STANDING","140","mmHg","140",140,"mmHg","","","",2,3,"BASELINE","SCREENING","2013-07-22",1],
[1063,"CDISCPILOT01","VS","CDISC013",28,"SYSBP","Systolic Blood Pressure","STANDING","144","mmHg","144",144,"mmHg","","","Y",3,3,"BASELINE","SCREENING","2013-07-22",1],
[1064,"CDISCPILOT01","VS","CDISC013",29,"TEMP","Temperature","","098.6","F","37",37,"C","","ORAL CAVITY","",null,1,"SCREENING 1","SCREENING","2013-07-09",-13],
[1065,"CDISCPILOT01","VS","CDISC013",30,"TEMP","Temperature","","098.6","F","37",37,"C","","ORAL CAVITY","",null,2,"SCREENING 2","SCREENING","2013-07-20",-2],
[1066,"CDISCPILOT01","VS","CDISC013",31,"TEMP","Temperature","","098.4","F","36.89",36.89,"C","","ORAL CAVITY","",null,3,"BASELINE","SCREENING","2013-07-22",1],
[1067,"CDISCPILOT01","VS","CDISC013",32,"WEIGHT","Weight","","105.0","LB","47.63",47.63,"kg","","","",null,1,"SCREENING 1","SCREENING","2013-07-09",-13],
[1068,"CDISCPILOT01","VS","CDISC013",33,"WEIGHT","Weight","","104.0","LB","47.17",47.17,"kg","","","",null,3,"BASELINE","SCREENING","2013-07-22",1],
[1069,"CDISCPILOT01","VS","CDISC014",1,"DIABP","Diastolic Blood Pressure","SUPINE","076","mmHg","76",76,"mmHg","","","",1,1,"SCREENING 1","SCREENING","2013-03-20",-14],
[1070,"CDISCPILOT01","VS","CDISC014",2,"DIABP","Diastolic Blood Pressure","STANDING","072","mmHg","72",72,"mmHg","","","",2,1,"SCREENING 1","SCREENING","2013-03-20",-14],
[1071,"CDISCPILOT01","VS","CDISC014",3,"DIABP","Diastolic Blood Pressure","STANDING","076","mmHg","76",76,"mmHg","","","",3,1,"SCREENING 1","SCREENING","2013-03-20",-14],
[1072,"CDISCPILOT01","VS","CDISC014",4,"DIABP","Diastolic Blood Pressure","SUPINE","078","mmHg","78",78,"mmHg","","","",1,2,"SCREENING 2","SCREENING","2013-04-01",-2],
[1073,"CDISCPILOT01","VS","CDISC014",5,"DIABP","Diastolic Blood Pressure","STANDING","066","mmHg","66",66,"mmHg","","","",2,2,"SCREENING 2","SCREENING","2013-04-01",-2],
[1074,"CDISCPILOT01","VS","CDISC014",6,"DIABP","Diastolic Blood Pressure","STANDING","066","mmHg","66",66,"mmHg","","","",3,2,"SCREENING 2","SCREENING","2013-04-01",-2],
[1075,"CDISCPILOT01","VS","CDISC014",7,"DIABP","Diastolic Blood Pressure","SUPINE","080","mmHg","80",80,"mmHg","","","",1,3,"BASELINE","SCREENING","2013-04-03",1],
[1076,"CDISCPILOT01","VS","CDISC014",8,"DIABP","Diastolic Blood Pressure","STANDING","078","mmHg","78",78,"mmHg","","","",2,3,"BASELINE","SCREENING","2013-04-03",1],
[1077,"CDISCPILOT01","VS","CDISC014",9,"DIABP","Diastolic Blood Pressure","STANDING","082","mmHg","82",82,"mmHg","","","Y",3,3,"BASELINE","SCREENING","2013-04-03",1],
[1078,"CDISCPILOT01","VS","CDISC014",10,"DIABP","Diastolic Blood Pressure","SUPINE","080","mmHg","80",80,"mmHg","","","",1,4,"WEEK 2","TREATMENT","2013-04-17",15],
[1079,"CDISCPILOT01","VS","CDISC014",11,"DIABP","Diastolic Blood Pressure","STANDING","074","mmHg","74",74,"mmHg","","","",2,4,"WEEK 2","TREATMENT","2013-04-17",15],
[1080,"CDISCPILOT01","VS","CDISC014",12,"DIABP","Diastolic Blood Pressure","STANDING","078","mmHg","78",78,"mmHg","","","",3,4,"WEEK 2","TREATMENT","2013-04-17",15],
[1081,"CDISCPILOT01","VS","CDISC014",13,"DIABP","Diastolic Blood Pressure","SUPINE","070","mmHg","70",70,"mmHg","","","",1,5,"WEEK 4","TREATMENT","2013-05-02",30],
[1082,"CDISCPILOT01","VS","CDISC014",14,"DIABP","Diastolic Blood Pressure","STANDING","068","mmHg","68",68,"mmHg","","","",2,5,"WEEK 4","TREATMENT","2013-05-02",30],
[1083,"CDISCPILOT01","VS","CDISC014",15,"DIABP","Diastolic Blood Pressure","STANDING","066","mmHg","66",66,"mmHg","","","",3,5,"WEEK 4","TREATMENT","2013-05-02",30],
[1084,"CDISCPILOT01","VS","CDISC014",16,"DIABP","Diastolic Blood Pressure","SUPINE","082","mmHg","82",82,"mmHg","","","",1,201,"EARLY DISCONTINUATION RETRIEVAL","TREATMENT","2013-09-18",169],
[1085,"CDISCPILOT01","VS","CDISC014",17,"DIABP","Diastolic Blood Pressure","STANDING","074","mmHg","74",74,"mmHg","","","",2,201,"EARLY DISCONTINUATION RETRIEVAL","TREATMENT","2013-09-18",169],
[1086,"CDISCPILOT01","VS","CDISC014",18,"DIABP","Diastolic Blood Pressure","STANDING","068","mmHg","68",68,"mmHg","","","",3,201,"EARLY DISCONTINUATION RETRIEVAL","TREATMENT","2013-09-18",169],
[1087,"CDISCPILOT01","VS","CDISC014",19,"HEIGHT","Height","","067.0","in","170.18",170.18,"cm","","","",null,1,"SCREENING 1","SCREENING","2013-03-20",-14],
[1088,"CDISCPILOT01","VS","CDISC014",20,"PULSE","Pulse Rate","SUPINE","89","beats/min","89",89,"beats/min","","","",1,1,"SCREENING 1","SCREENING","2013-03-20",-14],
[1089,"CDISCPILOT01","VS","CDISC014",21,"PULSE","Pulse Rate","STANDING","84","beats/min","84",84,"beats/min","","","",2,1,"SCREENING 1","SCREENING","2013-03-20",-14],
[1090,"CDISCPILOT01","VS","CDISC014",22,"PULSE","Pulse Rate","STANDING","87","beats/min","87",87,"beats/min","","","",3,1,"SCREENING 1","SCREENING","2013-03-20",-14],
[1091,"CDISCPILOT01","VS","CDISC014",23,"PULSE","Pulse Rate","SUPINE","064","beats/min","64",64,"beats/min","","","",1,2,"SCREENING 2","SCREENING","2013-04-01",-2],
[1092,"CDISCPILOT01","VS","CDISC014",24,"PULSE","Pulse Rate","STANDING","080","beats/min","80",80,"beats/min","","","",2,2,"SCREENING 2","SCREENING","2013-04-01",-2],
[1093,"CDISCPILOT01","VS","CDISC014",25,"PULSE","Pulse Rate","STANDING","080","beats/min","80",80,"beats/min","","","",3,2,"SCREENING 2","SCREENING","2013-04-01",-2],
[1094,"CDISCPILOT01","VS","CDISC014",26,"PULSE","Pulse Rate","SUPINE","080","beats/min","80",80,"beats/min","","","",1,3,"BASELINE","SCREENING","2013-04-03",1],
[1095,"CDISCPILOT01","VS","CDISC014",27,"PULSE","Pulse Rate","STANDING","092","beats/min","92",92,"beats/min","","","",2,3,"BASELINE","SCREENING","2013-04-03",1],
[1096,"CDISCPILOT01","VS","CDISC014",28,"PULSE","Pulse Rate","STANDING","088","beats/min","88",88,"beats/min","","","Y",3,3,"BASELINE","SCREENING","2013-04-03",1],
[1097,"CDISCPILOT01","VS","CDISC014",29,"PULSE","Pulse Rate","SUPINE","084","beats/min","84",84,"beats/min","","","",1,4,"WEEK 2","TREATMENT","2013-04-17",15],
[1098,"CDISCPILOT01","VS","CDISC014",30,"PULSE","Pulse Rate","STANDING","092","beats/min","92",92,"beats/min","","","",2,4,"WEEK 2","TREATMENT","2013-04-17",15],
[1099,"CDISCPILOT01","VS","CDISC014",31,"PULSE","Pulse Rate","STANDING","092","beats/min","92",92,"beats/min","","","",3,4,"WEEK 2","TREATMENT","2013-04-17",15],
[1100,"CDISCPILOT01","VS","CDISC014",32,"PULSE","Pulse Rate","SUPINE","064","beats/min","64",64,"beats/min","","","",1,5,"WEEK 4","TREATMENT","2013-05-02",30],
[1101,"CDISCPILOT01","VS","CDISC014",33,"PULSE","Pulse Rate","STANDING","072","beats/min","72",72,"beats/min","","","",2,5,"WEEK 4","TREATMENT","2013-05-02",30],
[1102,"CDISCPILOT01","VS","CDISC014",34,"PULSE","Pulse Rate","STANDING","076","beats/min","76",76,"beats/min","","","",3,5,"WEEK 4","TREATMENT","2013-05-02",30],
[1103,"CDISCPILOT01","VS","CDISC014",35,"PULSE","Pulse Rate","SUPINE","068","beats/min","68",68,"beats/min","","","",1,201,"EARLY DISCONTINUATION RETRIEVAL","TREATMENT","2013-09-18",169],
[1104,"CDISCPILOT01","VS","CDISC014",36,"PULSE","Pulse Rate","STANDING","064","beats/min","64",64,"beats/min","","","",2,201,"EARLY DISCONTINUATION RETRIEVAL","TREATMENT","2013-09-18",169],
[1105,"CDISCPILOT01","VS","CDISC014",37,"PULSE","Pulse Rate","STANDING","064","beats/min","64",64,"beats/min","","","",3,201,"EARLY DISCONTINUATION RETRIEVAL","TREATMENT","2013-09-18",169],
[1106,"CDISCPILOT01","VS","CDISC014",38,"SYSBP","Systolic Blood Pressure","SUPINE","160","mmHg","160",160,"mmHg","","","",1,1,"SCREENING 1","SCREENING","2013-03-20",-14],
[1107,"CDISCPILOT01","VS","CDISC014",39,"SYSBP","Systolic Blood Pressure","STANDING","122","mmHg","122",122,"mmHg","","","",2,1,"SCREENING 1","SCREENING","2013-03-20",-14],
[1108,"CDISCPILOT01","VS","CDISC014",40,"SYSBP","Systolic Blood Pressure","STANDING","140","mmHg","140",140,"mmHg","","","",3,1,"SCREENING 1","SCREENING","2013-03-20",-14],
[1109,"CDISCPILOT01","VS","CDISC014",41,"SYSBP","Systolic Blood Pressure","SUPINE","160","mmHg","160",160,"mmHg","","","",1,2,"SCREENING 2","SCREENING","2013-04-01",-2],
[1110,"CDISCPILOT01","VS","CDISC014",42,"SYSBP","Systolic Blood Pressure","STANDING","110","mmHg","110",110,"mmHg","","","",2,2,"SCREENING 2","SCREENING","2013-04-01",-2],
[1111,"CDISCPILOT01","VS","CDISC014",43,"SYSBP","Systolic Blood Pressure","STANDING","132","mmHg","132",132,"mmHg","","","",3,2,"SCREENING 2","SCREENING","2013-04-01",-2],
[1112,"CDISCPILOT01","VS","CDISC014",44,"SYSBP","Systolic Blood Pressure","SUPINE","154","mmHg","154",154,"mmHg","","","",1,3,"BASELINE","SCREENING","2013-04-03",1],
[1113,"CDISCPILOT01","VS","CDISC014",45,"SYSBP","Systolic Blood Pressure","STANDING","126","mmHg","126",126,"mmHg","","","",2,3,"BASELINE","SCREENING","2013-04-03",1],
[1114,"CDISCPILOT01","VS","CDISC014",46,"SYSBP","Systolic Blood Pressure","STANDING","144","mmHg","144",144,"mmHg","","","Y",3,3,"BASELINE","SCREENING","2013-04-03",1],
[1115,"CDISCPILOT01","VS","CDISC014",47,"SYSBP","Systolic Blood Pressure","SUPINE","152","mmHg","152",152,"mmHg","","","",1,4,"WEEK 2","TREATMENT","2013-04-17",15],
[1116,"CDISCPILOT01","VS","CDISC014",48,"SYSBP","Systolic Blood Pressure","STANDING","128","mmHg","128",128,"mmHg","","","",2,4,"WEEK 2","TREATMENT","2013-04-17",15],
[1117,"CDISCPILOT01","VS","CDISC014",49,"SYSBP","Systolic Blood Pressure","STANDING","136","mmHg","136",136,"mmHg","","","",3,4,"WEEK 2","TREATMENT","2013-04-17",15],
[1118,"CDISCPILOT01","VS","CDISC014",50,"SYSBP","Systolic Blood Pressure","SUPINE","150","mmHg","150",150,"mmHg","","","",1,5,"WEEK 4","TREATMENT","2013-05-02",30],
[1119,"CDISCPILOT01","VS","CDISC014",51,"SYSBP","Systolic Blood Pressure","STANDING","120","mmHg","120",120,"mmHg","","","",2,5,"WEEK 4","TREATMENT","2013-05-02",30],
[1120,"CDISCPILOT01","VS","CDISC014",52,"SYSBP","Systolic Blood Pressure","STANDING","118","mmHg","118",118,"mmHg","","","",3,5,"WEEK 4","TREATMENT","2013-05-02",30],
[1121,"CDISCPILOT01","VS","CDISC014",53,"SYSBP","Systolic Blood Pressure","SUPINE","158","mmHg","158",158,"mmHg","","","",1,201,"EARLY DISCONTINUATION RETRIEVAL","TREATMENT","2013-09-18",169],
[1122,"CDISCPILOT01","VS","CDISC014",54,"SYSBP","Systolic Blood Pressure","STANDING","150","mmHg","150",150,"mmHg","","","",2,201,"EARLY DISCONTINUATION RETRIEVAL","TREATMENT","2013-09-18",169],
[1123,"CDISCPILOT01","VS","CDISC014",55,"SYSBP","Systolic Blood Pressure","STANDING","140","mmHg","140",140,"mmHg","","","",3,201,"EARLY DISCONTINUATION RETRIEVAL","TREATMENT","2013-09-18",169],
[1124,"CDISCPILOT01","VS","CDISC014",56,"TEMP","Temperature","","097.6","F","36.44",36.44,"C","","ORAL CAVITY","",null,1,"SCREENING 1","SCREENING","2013-03-20",-14],
[1125,"CDISCPILOT01","VS","CDISC014",57,"TEMP","Temperature","","097.4","F","36.33",36.33,"C","","ORAL CAVITY","",null,2,"SCREENING 2","SCREENING","2013-04-01",-2],
[1126,"CDISCPILOT01","VS","CDISC014",58,"TEMP","Temperature","","099.4","F","37.44",37.44,"C","","ORAL CAVITY","",null,3,"BASELINE","SCREENING","2013-04-03",1],
[1127,"CDISCPILOT01","VS","CDISC014",59,"TEMP","Temperature","","098.4","F","36.89",36.89,"C","","ORAL CAVITY","",null,4,"WEEK 2","TREATMENT","2013-04-17",15],
[1128,"CDISCPILOT01","VS","CDISC014",60,"TEMP","Temperature","","098.6","F","37",37,"C","","ORAL CAVITY","",null,5,"WEEK 4","TREATMENT","2013-05-02",30],
[1129,"CDISCPILOT01","VS","CDISC014",61,"TEMP","Temperature","","097.1","F","36.17",36.17,"C","","ORAL CAVITY","",null,201,"EARLY DISCONTINUATION RETRIEVAL","TREATMENT","2013-09-18",169],
[1130,"CDISCPILOT01","VS","CDISC014",62,"WEIGHT","Weight","","181.5","LB","82.33",82.33,"kg","","","",null,1,"SCREENING 1","SCREENING","2013-03-20",-14],
[1131,"CDISCPILOT01","VS","CDISC014",63,"WEIGHT","Weight","","178.5","LB","80.97",80.97,"kg","","","",null,3,"BASELINE","SCREENING","2013-04-03",1],
[1132,"CDISCPILOT01","VS","CDISC014",64,"WEIGHT","Weight","","181.0","LB","82.1",82.1,"kg","","","",null,4,"WEEK 2","TREATMENT","2013-04-17",15],
[1133,"CDISCPILOT01","VS","CDISC014",65,"WEIGHT","Weight","","179.5","LB","81.42",81.42,"kg","","","",null,5,"WEEK 4","TREATMENT","2013-05-02",30],
[1134,"CDISCPILOT01","VS","CDISC016",1,"DIABP","Diastolic Blood Pressure","SUPINE","078","mmHg","78",78,"mmHg","","","",1,1,"SCREENING 1","SCREENING","2013-03-30",-4],
[1135,"CDISCPILOT01","VS","CDISC016",2,"DIABP","Diastolic Blood Pressure","STANDING","066","mmHg","66",66,"mmHg","","","",2,1,"SCREENING 1","SCREENING","2013-03-30",-4],
[1136,"CDISCPILOT01","VS","CDISC016",3,"DIABP","Diastolic Blood Pressure","STANDING","068","mmHg","68",68,"mmHg","","","",3,1,"SCREENING 1","SCREENING","2013-03-30",-4],
[1137,"CDISCPILOT01","VS","CDISC016",4,"DIABP","Diastolic Blood Pressure","SUPINE","080","mmHg","80",80,"mmHg","","","",1,2,"SCREENING 2","SCREENING","2013-04-01",-2],
[1138,"CDISCPILOT01","VS","CDISC016",5,"DIABP","Diastolic Blood Pressure","STANDING","070","mmHg","70",70,"mmHg","","","",2,2,"SCREENING 2","SCREENING","2013-04-01",-2],
[1139,"CDISCPILOT01","VS","CDISC016",6,"DIABP","Diastolic Blood Pressure","STANDING","072","mmHg","72",72,"mmHg","","","",3,2,"SCREENING 2","SCREENING","2013-04-01",-2],
[1140,"CDISCPILOT01","VS","CDISC016",7,"DIABP","Diastolic Blood Pressure","SUPINE","076","mmHg","76",76,"mmHg","","","",1,3,"BASELINE","SCREENING","2013-04-03",1],
[1141,"CDISCPILOT01","VS","CDISC016",8,"DIABP","Diastolic Blood Pressure","STANDING","072","mmHg","72",72,"mmHg","","","",2,3,"BASELINE","SCREENING","2013-04-03",1],
[1142,"CDISCPILOT01","VS","CDISC016",9,"DIABP","Diastolic Blood Pressure","STANDING","072","mmHg","72",72,"mmHg","","","Y",3,3,"BASELINE","SCREENING","2013-04-03",1],
[1143,"CDISCPILOT01","VS","CDISC016",10,"DIABP","Diastolic Blood Pressure","SUPINE","070","mmHg","70",70,"mmHg","","","",1,4,"WEEK 2","TREATMENT","2013-04-17",15],
[1144,"CDISCPILOT01","VS","CDISC016",11,"DIABP","Diastolic Blood Pressure","STANDING","074","mmHg","74",74,"mmHg","","","",2,4,"WEEK 2","TREATMENT","2013-04-17",15],
[1145,"CDISCPILOT01","VS","CDISC016",12,"DIABP","Diastolic Blood Pressure","STANDING","074","mmHg","74",74,"mmHg","","","",3,4,"WEEK 2","TREATMENT","2013-04-17",15],
[1146,"CDISCPILOT01","VS","CDISC016",13,"DIABP","Diastolic Blood Pressure","SUPINE","080","mmHg","80",80,"mmHg","","","",1,5,"WEEK 4","TREATMENT","2013-04-29",27],
[1147,"CDISCPILOT01","VS","CDISC016",14,"DIABP","Diastolic Blood Pressure","STANDING","072","mmHg","72",72,"mmHg","","","",2,5,"WEEK 4","TREATMENT","2013-04-29",27],
[1148,"CDISCPILOT01","VS","CDISC016",15,"DIABP","Diastolic Blood Pressure","STANDING","072","mmHg","72",72,"mmHg","","","",3,5,"WEEK 4","TREATMENT","2013-04-29",27],
[1149,"CDISCPILOT01","VS","CDISC016",16,"DIABP","Diastolic Blood Pressure","SUPINE","078","mmHg","78",78,"mmHg","","","",1,7,"WEEK 6","TREATMENT","2013-05-15",43],
[1150,"CDISCPILOT01","VS","CDISC016",17,"DIABP","Diastolic Blood Pressure","STANDING","076","mmHg","76",76,"mmHg","","","",2,7,"WEEK 6","TREATMENT","2013-05-15",43],
[1151,"CDISCPILOT01","VS","CDISC016",18,"DIABP","Diastolic Blood Pressure","STANDING","076","mmHg","76",76,"mmHg","","","",3,7,"WEEK 6","TREATMENT","2013-05-15",43],
[1152,"CDISCPILOT01","VS","CDISC016",19,"DIABP","Diastolic Blood Pressure","SUPINE","072","mmHg","72",72,"mmHg","","","",1,8,"WEEK 8","TREATMENT","2013-05-28",56],
[1153,"CDISCPILOT01","VS","CDISC016",20,"DIABP","Diastolic Blood Pressure","STANDING","076","mmHg","76",76,"mmHg","","","",2,8,"WEEK 8","TREATMENT","2013-05-28",56],
[1154,"CDISCPILOT01","VS","CDISC016",21,"DIABP","Diastolic Blood Pressure","STANDING","074","mmHg","74",74,"mmHg","","","",3,8,"WEEK 8","TREATMENT","2013-05-28",56],
[1155,"CDISCPILOT01","VS","CDISC016",22,"DIABP","Diastolic Blood Pressure","SUPINE","070","mmHg","70",70,"mmHg","","","",1,9,"WEEK 12","TREATMENT","2013-06-01",60],
[1156,"CDISCPILOT01","VS","CDISC016",23,"DIABP","Diastolic Blood Pressure","STANDING","068","mmHg","68",68,"mmHg","","","",2,9,"WEEK 12","TREATMENT","2013-06-01",60],
[1157,"CDISCPILOT01","VS","CDISC016",24,"DIABP","Diastolic Blood Pressure","STANDING","068","mmHg","68",68,"mmHg","","","",3,9,"WEEK 12","TREATMENT","2013-06-01",60],
[1158,"CDISCPILOT01","VS","CDISC016",25,"DIABP","Diastolic Blood Pressure","SUPINE","076","mmHg","76",76,"mmHg","","","",1,201,"EARLY DISCONTINUATION RETRIEVAL","TREATMENT","2013-09-22",173],
[1159,"CDISCPILOT01","VS","CDISC016",26,"DIABP","Diastolic Blood Pressure","STANDING","072","mmHg","72",72,"mmHg","","","",2,201,"EARLY DISCONTINUATION RETRIEVAL","TREATMENT","2013-09-22",173],
[1160,"CDISCPILOT01","VS","CDISC016",27,"DIABP","Diastolic Blood Pressure","STANDING","070","mmHg","70",70,"mmHg","","","",3,201,"EARLY DISCONTINUATION RETRIEVAL","TREATMENT","2013-09-22",173],
[1161,"CDISCPILOT01","VS","CDISC016",28,"HEIGHT","Height","","064.2","in","163.07",163.07,"cm","","","",null,1,"SCREENING 1","SCREENING","2013-03-30",-4],
[1162,"CDISCPILOT01","VS","CDISC016",29,"PULSE","Pulse Rate","SUPINE","56","beats/min","56",56,"beats/min","","","",1,1,"SCREENING 1","SCREENING","2013-03-30",-4],
[1163,"CDISCPILOT01","VS","CDISC016",30,"PULSE","Pulse Rate","STANDING","64","beats/min","64",64,"beats/min","","","",2,1,"SCREENING 1","SCREENING","2013-03-30",-4],
[1164,"CDISCPILOT01","VS","CDISC016",31,"PULSE","Pulse Rate","STANDING","64","beats/min","64",64,"beats/min","","","",3,1,"SCREENING 1","SCREENING","2013-03-30",-4],
[1165,"CDISCPILOT01","VS","CDISC016",32,"PULSE","Pulse Rate","SUPINE","072","beats/min","72",72,"beats/min","","","",1,2,"SCREENING 2","SCREENING","2013-04-01",-2],
[1166,"CDISCPILOT01","VS","CDISC016",33,"PULSE","Pulse Rate","STANDING","068","beats/min","68",68,"beats/min","","","",2,2,"SCREENING 2","SCREENING","2013-04-01",-2],
[1167,"CDISCPILOT01","VS","CDISC016",34,"PULSE","Pulse Rate","STANDING","068","beats/min","68",68,"beats/min","","","",3,2,"SCREENING 2","SCREENING","2013-04-01",-2],
[1168,"CDISCPILOT01","VS","CDISC016",35,"PULSE","Pulse Rate","SUPINE","072","beats/min","72",72,"beats/min","","","",1,3,"BASELINE","SCREENING","2013-04-03",1],
[1169,"CDISCPILOT01","VS","CDISC016",36,"PULSE","Pulse Rate","STANDING","068","beats/min","68",68,"beats/min","","","",2,3,"BASELINE","SCREENING","2013-04-03",1],
[1170,"CDISCPILOT01","VS","CDISC016",37,"PULSE","Pulse Rate","STANDING","068","beats/min","68",68,"beats/min","","","Y",3,3,"BASELINE","SCREENING","2013-04-03",1],
[1171,"CDISCPILOT01","VS","CDISC016",38,"PULSE","Pulse Rate","SUPINE","060","beats/min","60",60,"beats/min","","","",1,4,"WEEK 2","TREATMENT","2013-04-17",15],
[1172,"CDISCPILOT01","VS","CDISC016",39,"PULSE","Pulse Rate","STANDING","064","beats/min","64",64,"beats/min","","","",2,4,"WEEK 2","TREATMENT","2013-04-17",15],
[1173,"CDISCPILOT01","VS","CDISC016",40,"PULSE","Pulse Rate","STANDING","064","beats/min","64",64,"beats/min","","","",3,4,"WEEK 2","TREATMENT","2013-04-17",15],
[1174,"CDISCPILOT01","VS","CDISC016",41,"PULSE","Pulse Rate","SUPINE","060","beats/min","60",60,"beats/min","","","",1,5,"WEEK 4","TREATMENT","2013-04-29",27],
[1175,"CDISCPILOT01","VS","CDISC016",42,"PULSE","Pulse Rate","STANDING","080","beats/min","80",80,"beats/min","","","",2,5,"WEEK 4","TREATMENT","2013-04-29",27],
[1176,"CDISCPILOT01","VS","CDISC016",43,"PULSE","Pulse Rate","STANDING","080","beats/min","80",80,"beats/min","","","",3,5,"WEEK 4","TREATMENT","2013-04-29",27],
[1177,"CDISCPILOT01","VS","CDISC016",44,"PULSE","Pulse Rate","SUPINE","064","beats/min","64",64,"beats/min","","","",1,7,"WEEK 6","TREATMENT","2013-05-15",43],
[1178,"CDISCPILOT01","VS","CDISC016",45,"PULSE","Pulse Rate","STANDING","060","beats/min","60",60,"beats/min","","","",2,7,"WEEK 6","TREATMENT","2013-05-15",43],
[1179,"CDISCPILOT01","VS","CDISC016",46,"PULSE","Pulse Rate","STANDING","064","beats/min","64",64,"beats/min","","","",3,7,"WEEK 6","TREATMENT","2013-05-15",43],
[1180,"CDISCPILOT01","VS","CDISC016",47,"PULSE","Pulse Rate","SUPINE","064","beats/min","64",64,"beats/min","","","",1,8,"WEEK 8","TREATMENT","2013-05-28",56],
[1181,"CDISCPILOT01","VS","CDISC016",48,"PULSE","Pulse Rate","STANDING","068","beats/min","68",68,"beats/min","","","",2,8,"WEEK 8","TREATMENT","2013-05-28",56],
[1182,"CDISCPILOT01","VS","CDISC016",49,"PULSE","Pulse Rate","STANDING","068","beats/min","68",68,"beats/min","","","",3,8,"WEEK 8","TREATMENT","2013-05-28",56],
[1183,"CDISCPILOT01","VS","CDISC016",50,"PULSE","Pulse Rate","SUPINE","060","beats/min","60",60,"beats/min","","","",1,9,"WEEK 12","TREATMENT","2013-06-01",60],
[1184,"CDISCPILOT01","VS","CDISC016",51,"PULSE","Pulse Rate","STANDING","064","beats/min","64",64,"beats/min","","","",2,9,"WEEK 12","TREATMENT","2013-06-01",60],
[1185,"CDISCPILOT01","VS","CDISC016",52,"PULSE","Pulse Rate","STANDING","064","beats/min","64",64,"beats/min","","","",3,9,"WEEK 12","TREATMENT","2013-06-01",60],
[1186,"CDISCPILOT01","VS","CDISC016",53,"PULSE","Pulse Rate","SUPINE","056","beats/min","56",56,"beats/min","","","",1,201,"EARLY DISCONTINUATION RETRIEVAL","TREATMENT","2013-09-22",173],
[1187,"CDISCPILOT01","VS","CDISC016",54,"PULSE","Pulse Rate","STANDING","072","beats/min","72",72,"beats/min","","","",2,201,"EARLY DISCONTINUATION RETRIEVAL","TREATMENT","2013-09-22",173],
[1188,"CDISCPILOT01","VS","CDISC016",55,"PULSE","Pulse Rate","STANDING","076","beats/min","76",76,"beats/min","","","",3,201,"EARLY DISCONTINUATION RETRIEVAL","TREATMENT","2013-09-22",173],
[1189,"CDISCPILOT01","VS","CDISC016",56,"SYSBP","Systolic Blood Pressure","SUPINE","150","mmHg","150",150,"mmHg","","","",1,1,"SCREENING 1","SCREENING","2013-03-30",-4],
[1190,"CDISCPILOT01","VS","CDISC016",57,"SYSBP","Systolic Blood Pressure","STANDING","142","mmHg","142",142,"mmHg","","","",2,1,"SCREENING 1","SCREENING","2013-03-30",-4],
[1191,"CDISCPILOT01","VS","CDISC016",58,"SYSBP","Systolic Blood Pressure","STANDING","158","mmHg","158",158,"mmHg","","","",3,1,"SCREENING 1","SCREENING","2013-03-30",-4],
[1192,"CDISCPILOT01","VS","CDISC016",59,"SYSBP","Systolic Blood Pressure","SUPINE","170","mmHg","170",170,"mmHg","","","",1,2,"SCREENING 2","SCREENING","2013-04-01",-2],
[1193,"CDISCPILOT01","VS","CDISC016",60,"SYSBP","Systolic Blood Pressure","STANDING","140","mmHg","140",140,"mmHg","","","",2,2,"SCREENING 2","SCREENING","2013-04-01",-2],
[1194,"CDISCPILOT01","VS","CDISC016",61,"SYSBP","Systolic Blood Pressure","STANDING","160","mmHg","160",160,"mmHg","","","",3,2,"SCREENING 2","SCREENING","2013-04-01",-2],
[1195,"CDISCPILOT01","VS","CDISC016",62,"SYSBP","Systolic Blood Pressure","SUPINE","164","mmHg","164",164,"mmHg","","","",1,3,"BASELINE","SCREENING","2013-04-03",1],
[1196,"CDISCPILOT01","VS","CDISC016",63,"SYSBP","Systolic Blood Pressure","STANDING","140","mmHg","140",140,"mmHg","","","",2,3,"BASELINE","SCREENING","2013-04-03",1],
[1197,"CDISCPILOT01","VS","CDISC016",64,"SYSBP","Systolic Blood Pressure","STANDING","150","mmHg","150",150,"mmHg","","","Y",3,3,"BASELINE","SCREENING","2013-04-03",1],
[1198,"CDISCPILOT01","VS","CDISC016",65,"SYSBP","Systolic Blood Pressure","SUPINE","160","mmHg","160",160,"mmHg","","","",1,4,"WEEK 2","TREATMENT","2013-04-17",15],
[1199,"CDISCPILOT01","VS","CDISC016",66,"SYSBP","Systolic Blood Pressure","STANDING","158","mmHg","158",158,"mmHg","","","",2,4,"WEEK 2","TREATMENT","2013-04-17",15],
[1200,"CDISCPILOT01","VS","CDISC016",67,"SYSBP","Systolic Blood Pressure","STANDING","160","mmHg","160",160,"mmHg","","","",3,4,"WEEK 2","TREATMENT","2013-04-17",15],
[1201,"CDISCPILOT01","VS","CDISC016",68,"SYSBP","Systolic Blood Pressure","SUPINE","168","mmHg","168",168,"mmHg","","","",1,5,"WEEK 4","TREATMENT","2013-04-29",27],
[1202,"CDISCPILOT01","VS","CDISC016",69,"SYSBP","Systolic Blood Pressure","STANDING","150","mmHg","150",150,"mmHg","","","",2,5,"WEEK 4","TREATMENT","2013-04-29",27],
[1203,"CDISCPILOT01","VS","CDISC016",70,"SYSBP","Systolic Blood Pressure","STANDING","160","mmHg","160",160,"mmHg","","","",3,5,"WEEK 4","TREATMENT","2013-04-29",27],
[1204,"CDISCPILOT01","VS","CDISC016",71,"SYSBP","Systolic Blood Pressure","SUPINE","162","mmHg","162",162,"mmHg","","","",1,7,"WEEK 6","TREATMENT","2013-05-15",43],
