{
    "datasetJSONCreationDateTime": "2026-07-17T00:00:00",
    "datasetJSONVersion": "1.1.0",
    "studyOID": "STUDY001",
    "metaDataVersionOID": "MDV.STUDY001",
    "itemGroupOID": "IG.VS",
    "records": 8,
    "name": "VS",
    "label": "Vital Signs",
    "columns": [
        {"itemOID": "IT.VS.STUDYID", "name": "STUDYID", "label": "Study Identifier", "dataType": "string", "length": 12},
        {"itemOID": "IT.VS.DOMAIN", "name": "DOMAIN", "label": "Domain Abbreviation", "dataType": "string", "length": 2},
        {"itemOID": "IT.VS.USUBJID", "name": "USUBJID", "label": "Unique Subject Identifier", "dataType": "string", "length": 8},
        {"itemOID": "IT.VS.VSSEQ", "name": "VSSEQ", "label": "Sequence Number", "dataType": "integer", "length": 8},
        {"itemOID": "IT.VS.VSTESTCD", "name": "VSTESTCD", "label": "Vital Sign Test Code", "dataType": "string", "length": 8},
        {"itemOID": "IT.VS.VSTEST", "name": "VSTEST", "label": "Vital Sign Test Name", "dataType": "string", "length": 40},
        {"itemOID": "IT.VS.VSORRESU", "name": "VSORRESU", "label": "Original Result Units", "dataType": "string", "length": 20},
        {"itemOID": "IT.VS.VSSTRESC", "name": "VSSTRESC", "label": "Character Result/Finding in Std Format", "dataType": "string", "length": 8}
    ],
    "rows": [
        ["STUDY001", "VS", "001", 1, "SYSBP", "Systolic Blood Pressure", "mmHg", "120"],
        ["STUDY001", "VS", "001", 2, "DIABP", "Diastolic Blood Pressure", "mmHg", "80"],
        ["STUDY001", "VS", "001", 3, "HEIGHT", "Height", "cm", "175"],
        ["STUDY001", "VS", "001", 4, "WEIGHT", "Weight", "kg", "75"],
        ["STUDY001", "VS", "001", 5, "PULSE", "Pulse Rate", "beats/min", "72"],
        ["STUDY001", "VS", "001", 6, "TEMP", "Temperature", "C", "37"],
        ["STUDY001", "VS", "002", 1, "SYSBP", "Systolic Blood Pressure", "mmHg", "118"],
        ["STUDY001", "VS", "002", 2, "HEIGHT", "Height", "cm", "182"]
    ]
}