{ "rules":
[
    {
        "_links": {
            "package": {
                "href": "/mdr/rules/sdtmig/3-4",
                "title": "sdtmig Conformance Rules v3-4",
                "type": "Conformance Rules Package"
            },
            "self": {
                "href": "/mdr/rules/sdtmig/3-4/rule/03d46573-5ef7-45d4-b610-c6d6e7cebe98",
                "title": "CDISC.SDTMIG.CG0569",
                "type": "Conformance Rule"
            },
            "standards": [
                {
                    "href": "/mdr/sdtmig/3-4",
                    "title": "Study Data Tabulation Model Implementation Guide: Human Clinical Trials",
                    "type": "Implementation Guide"
                }
            ]
        },
        "actions": [
            {
                "name": "generate_dataset_error_objects",
                "params": {
                    "message": "--LOBXFL = 'Y', but --STRESC is empty."
                }
            }
        ],
        "authority": {
            "Organization": "CDISC"
        },
        "classes": {
            "Include": [
                "Findings"
            ]
        },
        "conditions": {
            "all": [
                {
                    "name": "get_dataset",
                    "operator": "equal_to",
                    "value": {
                        "comparator": "Y",
                        "target": "--LOBXFL"
                    }
                },
                {
                    "name": "get_dataset",
                    "operator": "empty",
                    "value": {
                        "target": "--STRESC"
                    }
                }
            ]
        },
        "core_id": "CDISC.SDTMIG.CG0569",
        "description": "Raise an error when --LOBXFL = 'Y' and --STRESC is empty.",
        "domains": {
            "Include": [
                "All"
            ]
        },
        "id": "03d46573-5ef7-45d4-b610-c6d6e7cebe98",
        "output_variables": [
            "--TESTCD",
            "--CAT"
        ],
        "reference": [
            {
                "Origin": "SDTM and SDTMIG Conformance Rules",
                "Rule Identifier": {
                    "Id": "CG0569",
                    "Version": "1"
                },
                "Version": "2.0"
            }
        ],
        "rule_type": "Value Presence",
        "sensitivity": "Record",
        "severity": "error",
        "standards": [
            {
                "Name": "SDTMIG",
                "Version": "3.4"
            }
        ]
    },
    {
        "_links": {
            "package": {
                "href": "/mdr/rules/sdtmig/3-4",
                "title": "sdtmig Conformance Rules v3-4",
                "type": "Conformance Rules Package"
            },
            "self": {
                "href": "/mdr/rules/sdtmig/3-4/rule/0588b8b5-d903-4357-9b7d-c07df40e0cce",
                "title": "CDISC.SDTMIG.CG0112",
                "type": "Conformance Rule"
            },
            "standards": [
                {
                    "href": "/mdr/sdtmig/3-4",
                    "title": "Study Data Tabulation Model Implementation Guide: Human Clinical Trials",
                    "type": "Implementation Guide"
                }
            ]
        },
        "actions": [
            {
                "name": "generate_dataset_error_objects",
                "params": {
                    "message": "--DOSTXT value is numeric."
                }
            }
        ],
        "authority": {
            "Organization": "CDISC"
        },
        "classes": {
            "Include": [
                "Interventions"
            ]
        },
        "conditions": {
            "all": [
                {
                    "name": "get_dataset",
                    "operator": "matches_regex",
                    "value": {
                        "comparator": "^\\d*\\.?\\d*$",
                        "target": "--DOSTXT"
                    }
                },
                {
                    "name": "get_dataset",
                    "operator": "non_empty",
                    "value": {
                        "target": "--DOSTXT"
                    }
                }
            ]
        },
        "core_id": "CDISC.SDTMIG.CG0112",
        "description": "Raise an error if --DOSTXT value is numeric.",
        "domains": {
            "Include": [
                "All"
            ]
        },
        "id": "0588b8b5-d903-4357-9b7d-c07df40e0cce",
        "output_variables": [],
        "reference": [
            {
                "Origin": "SDTM and SDTMIG Conformance Rules",
                "Rule Identifier": {
                    "Id": "CG0112",
                    "Version": "1"
                },
                "Version": "2.0"
            }
        ],
        "rule_type": "Range & Limit",
        "sensitivity": "Record",
        "severity": "error",
        "standards": [
            {
                "Name": "SDTMIG",
                "Version": "3.4"
            }
        ]
    },
    {
        "_links": {
            "package": {
                "href": "/mdr/rules/sdtmig/3-4",
                "title": "sdtmig Conformance Rules v3-4",
                "type": "Conformance Rules Package"
            },
            "self": {
                "href": "/mdr/rules/sdtmig/3-4/rule/05d5feca-413e-4d0b-a802-2e70ea5a0bfd",
                "title": "CDISC.SDTMIG.CG0040",
                "type": "Conformance Rule"
            },
            "standards": [
                {
                    "href": "/mdr/sdtmig/3-4",
                    "title": "Study Data Tabulation Model Implementation Guide: Human Clinical Trials",
                    "type": "Implementation Guide"
                }
            ]
        },
        "actions": [
            {
                "name": "generate_dataset_error_objects",
                "params": {
                    "message": "AEOCCUR is present in AE dataset."
                }
            }
        ],
        "authority": {
            "Organization": "CDISC"
        },
        "classes": {
            "Include": [
                "Events"
            ]
        },
        "conditions": {
            "all": [
                {
                    "name": "get_dataset",
                    "operator": "exists",
                    "value": {
                        "target": "AEOCCUR"
                    }
                }
            ]
        },
        "core_id": "CDISC.SDTMIG.CG0040",
        "description": "Raise an error when AEOCCUR exists in AE dataset.",
        "domains": {
            "Include": [
                "AE"
            ]
        },
        "id": "05d5feca-413e-4d0b-a802-2e70ea5a0bfd",
        "output_variables": [
            "AEOCCUR"
        ],
        "reference": [
            {
                "Origin": "SDTM and SDTMIG Conformance Rules",
                "Rule Identifier": {
                    "Id": "CG0040",
                    "Version": "1"
                },
                "Version": "2.0"
            }
        ],
        "rule_type": "Variable Presence",
        "sensitivity": "Dataset",
        "severity": "error",
        "standards": [
            {
                "Name": "SDTMIG",
                "Version": "3.4"
            }
        ]
    },
    {
        "_links": {
            "package": {
                "href": "/mdr/rules/sdtmig/3-4",
                "title": "sdtmig Conformance Rules v3-4",
                "type": "Conformance Rules Package"
            },
            "self": {
                "href": "/mdr/rules/sdtmig/3-4/rule/071da583-9379-4e24-93e8-a594c1ce6852",
                "title": "CDISC.SDTMIG.CG0623",
                "type": "Conformance Rule"
            },
            "standards": [
                {
                    "href": "/mdr/sdtmig/3-4",
                    "title": "Study Data Tabulation Model Implementation Guide: Human Clinical Trials",
                    "type": "Implementation Guide"
                }
            ]
        },
        "actions": [
            {
                "name": "generate_dataset_error_objects",
                "params": {
                    "message": "--RSTIND is present."
                }
            }
        ],
        "authority": {
            "Organization": "CDISC"
        },
        "classes": {
            "Include": [
                "Interventions",
                "Findings"
            ]
        },
        "conditions": {
            "all": [
                {
                    "name": "get_dataset",
                    "operator": "exists",
                    "value": {
                        "target": "--RSTIND"
                    }
                }
            ]
        },
        "core_id": "CDISC.SDTMIG.CG0623",
        "description": "Raise an error when --RSTIND is present.",
        "domains": {
            "Include": [
                "All"
            ]
        },
        "id": "071da583-9379-4e24-93e8-a594c1ce6852",
        "output_variables": [],
        "reference": [
            {
                "Origin": "SDTM and SDTMIG Conformance Rules",
                "Rule Identifier": {
                    "Id": "CG0623",
                    "Version": "1"
                },
                "Version": "2.0"
            }
        ],
        "rule_type": "Variable Presence",
        "sensitivity": "Dataset",
        "severity": "error",
        "standards": [
            {
                "Name": "SDTMIG",
                "Version": "3.4"
            }
        ]
    },
    {
        "_links": {
            "package": {
                "href": "/mdr/rules/sdtmig/3-4",
                "title": "sdtmig Conformance Rules v3-4",
                "type": "Conformance Rules Package"
            },
            "self": {
                "href": "/mdr/rules/sdtmig/3-4/rule/077d7787-475f-42a5-8b1a-035bec25f4f7",
                "title": "CDISC.SDTMIG.CG0029",
                "type": "Conformance Rule"
            },
            "standards": [
                {
                    "href": "/mdr/sdtmig/3-4",
                    "title": "Study Data Tabulation Model Implementation Guide: Human Clinical Trials",
                    "type": "Implementation Guide"
                }
            ]
        },
        "actions": [
            {
                "name": "generate_dataset_error_objects",
                "params": {
                    "message": "USUBJID is not found in DM.USUBJID"
                }
            }
        ],
        "authority": {
            "Organization": "CDISC"
        },
        "classes": {
            "Include": [
                "All"
            ]
        },
        "conditions": {
            "all": [
                {
                    "name": "get_dataset",
                    "operator": "non_empty",
                    "value": {
                        "target": "USUBJID"
                    }
                },
                {
                    "name": "get_dataset",
                    "operator": "is_not_contained_by",
                    "value": {
                        "comparator": "$dm_usubjid",
                        "target": "USUBJID"
                    }
                }
            ]
        },
        "core_id": "CDISC.SDTMIG.CG0029",
        "description": "Trigger error when domain is not an AP-- domain and USUBJID is not present in DM.USUBJID",
        "domains": {
            "Exclude": [
                "AP"
            ]
        },
        "id": "077d7787-475f-42a5-8b1a-035bec25f4f7",
        "operations": [
            {
                "domain": "DM",
                "id": "$dm_usubjid",
                "name": "USUBJID",
                "operator": "distinct"
            }
        ],
        "output_variables": [],
        "reference": [
            {
                "Origin": "SDTM and SDTMIG Conformance Rules",
                "Rule Identifier": {
                    "Id": "CG0029",
                    "Version": "1"
                },
                "Version": "2.0"
            }
        ],
        "rule_type": "Range & Limit",
        "sensitivity": "Record",
        "severity": "error",
        "standards": [
            {
                "Name": "SDTMIG",
                "Version": "3.4"
            }
        ]
    },
    {
        "_links": {
            "package": {
                "href": "/mdr/rules/sdtmig/3-4",
                "title": "sdtmig Conformance Rules v3-4",
                "type": "Conformance Rules Package"
            },
            "self": {
                "href": "/mdr/rules/sdtmig/3-4/rule/07bd32a3-69d7-4e06-b8f6-b438df9f6daf",
                "title": "CDISC.SDTMIG.CG0079",
                "type": "Conformance Rule"
            },
            "standards": [
                {
                    "href": "/mdr/sdtmig/3-4",
                    "title": "Study Data Tabulation Model Implementation Guide: Human Clinical Trials",
                    "type": "Implementation Guide"
                }
            ]
        },
        "actions": [
            {
                "name": "generate_dataset_error_objects",
                "params": {
                    "message": "MHSTDTC ^= null and MHSTDTC is on or after the DM.RFSTDTC. The medical history dataset should include the subject's prior history at the start of the trial."
                }
            }
        ],
        "authority": {
            "Organization": "CDISC"
        },
        "classes": {
            "Include": [
                "Events"
            ]
        },
        "conditions": {
            "all": [
                {
                    "name": "get_dataset",
                    "operator": "non_empty",
                    "value": {
                        "target": "MHSTDTC"
                    }
                },
                {
                    "name": "get_dataset",
                    "operator": "date_greater_than_or_equal_to",
                    "value": {
                        "comparator": "RFSTDTC",
                        "target": "MHSTDTC"
                    }
                }
            ]
        },
        "core_id": "CDISC.SDTMIG.CG0079",
        "datasets": [
            {
                "domain_name": "DM",
                "match_key": [
                    "USUBJID"
                ]
            }
        ],
        "description": "Raise an issue if MHSTDTC has a non-empty date that later than DM.RFSTDTC",
        "domains": {
            "Include": [
                "MH"
            ]
        },
        "id": "07bd32a3-69d7-4e06-b8f6-b438df9f6daf",
        "output_variables": [
            "MHSTDTC",
            "RFSTDTC"
        ],
        "reference": [
            {
                "Origin": "SDTM and SDTMIG Conformance Rules",
                "Rule Identifier": {
                    "Id": "CG0079",
                    "Version": "1"
                },
                "Version": "2.0"
            }
        ],
        "rule_type": "Date Arithmetic",
        "sensitivity": "Record",
        "severity": "warning",
        "standards": [
            {
                "Name": "SDTMIG",
                "Version": "3.4"
            }
        ]
    },
    {
        "_links": {
            "package": {
                "href": "/mdr/rules/sdtmig/3-4",
                "title": "sdtmig Conformance Rules v3-4",
                "type": "Conformance Rules Package"
            },
            "self": {
                "href": "/mdr/rules/sdtmig/3-4/rule/087d5348-f494-4e5b-89fc-bf2c3639def3",
                "title": "CDISC.SDTMIG.CG0387",
                "type": "Conformance Rule"
            },
            "standards": [
                {
                    "href": "/mdr/sdtmig/3-4",
                    "title": "Study Data Tabulation Model Implementation Guide: Human Clinical Trials",
                    "type": "Implementation Guide"
                }
            ]
        },
        "actions": [
            {
                "name": "generate_dataset_error_objects",
                "params": {
                    "message": "AESER is completed, but not equal to \"N\" or \"Y\""
                }
            }
        ],
        "authority": {
            "Organization": "CDISC"
        },
        "classes": {
            "Include": [
                "Events"
            ]
        },
        "conditions": {
            "all": [
                {
                    "name": "get_dataset",
                    "operator": "non_empty",
                    "value": {
                        "target": "AESER"
                    }
                },
                {
                    "name": "get_dataset",
                    "operator": "is_not_contained_by",
                    "value": {
                        "comparator": [
                            "Y",
                            "N"
                        ],
                        "target": "AESER"
                    }
                }
            ]
        },
        "core_id": "CDISC.SDTMIG.CG0387",
        "description": "Raise an error when AESER is completed and value is not 'Y' or 'N'",
        "domains": {
            "Include": [
                "AE"
            ]
        },
        "id": "087d5348-f494-4e5b-89fc-bf2c3639def3",
        "output_variables": [
            "AESER"
        ],
        "reference": [
            {
                "Origin": "SDTM and SDTMIG Conformance Rules",
                "Rule Identifier": {
                    "Id": "CG0387",
                    "Version": "1"
                },
                "Version": "2.0"
            }
        ],
        "rule_type": "Range & Limit",
        "sensitivity": "Record",
        "severity": "error",
        "standards": [
            {
                "Name": "SDTMIG",
                "Version": "3.4"
            }
        ]
    },
    {
        "_links": {
            "package": {
                "href": "/mdr/rules/sdtmig/3-4",
                "title": "sdtmig Conformance Rules v3-4",
                "type": "Conformance Rules Package"
            },
            "self": {
                "href": "/mdr/rules/sdtmig/3-4/rule/09182b07-93eb-4112-98de-37b3db39b457",
                "title": "CDISC.SDTMIG.CG0177",
                "type": "Conformance Rule"
            },
            "standards": [
                {
                    "href": "/mdr/sdtmig/3-4",
                    "title": "Study Data Tabulation Model Implementation Guide: Human Clinical Trials",
                    "type": "Implementation Guide"
                }
            ]
        },
        "actions": [
            {
                "name": "generate_dataset_error_objects",
                "params": {
                    "message": "IESTRESC is not equal to IEORRES"
                }
            }
        ],
        "authority": {
            "Organization": "CDISC"
        },
        "classes": {
            "Include": [
                "Findings"
            ]
        },
        "conditions": {
            "all": [
                {
                    "name": "get_dataset",
                    "operator": "not_equal_to",
                    "value": {
                        "comparator": "IEORRES",
                        "target": "IESTRESC"
                    }
                }
            ]
        },
        "core_id": "CDISC.SDTMIG.CG0177",
        "description": "IESTRESC is not equal to IEORRES",
        "domains": {
            "Include": [
                "IE"
            ]
        },
        "id": "09182b07-93eb-4112-98de-37b3db39b457",
        "output_variables": [
            "IEORRES",
            "IESTRESC"
        ],
        "reference": [
            {
                "Origin": "SDTM and SDTMIG Conformance Rules",
                "Rule Identifier": {
                    "Id": "CG0177",
                    "Version": "1"
                },
                "Version": "2.0"
            }
        ],
        "rule_type": "Range & Limit",
        "sensitivity": "Record",
        "severity": "error",
        "standards": [
            {
                "Name": "SDTMIG",
                "Version": "3.4"
            }
        ]
    },
    {
        "_links": {
            "package": {
                "href": "/mdr/rules/sdtmig/3-4",
                "title": "sdtmig Conformance Rules v3-4",
                "type": "Conformance Rules Package"
            },
            "self": {
                "href": "/mdr/rules/sdtmig/3-4/rule/09604372-4390-4da3-84eb-b157ba1b279b",
                "title": "CDISC.SDTMIG.CG0294",
                "type": "Conformance Rule"
            },
            "standards": [
                {
                    "href": "/mdr/sdtmig/3-4",
                    "title": "Study Data Tabulation Model Implementation Guide: Human Clinical Trials",
                    "type": "Implementation Guide"
                }
            ]
        },
        "actions": [
            {
                "name": "generate_dataset_error_objects",
                "params": {
                    "message": "ARM is not in TA.ARM"
                }
            }
        ],
        "authority": {
            "Organization": "CDISC"
        },
        "classes": {
            "Include": [
                "Trial Design"
            ]
        },
        "conditions": {
            "all": [
                {
                    "name": "get_dataset",
                    "operator": "non_empty",
                    "value": {
                        "target": "ARM"
                    }
                },
                {
                    "name": "get_dataset",
                    "operator": "is_not_contained_by",
                    "value": {
                        "comparator": "$ta_arm",
                        "target": "ARM"
                    }
                }
            ]
        },
        "core_id": "CDISC.SDTMIG.CG0294",
        "description": "Trigger error when ARM is populated and ARM is not in TA.ARM",
        "domains": {
            "Include": [
                "TV"
            ]
        },
        "id": "09604372-4390-4da3-84eb-b157ba1b279b",
        "operations": [
            {
                "domain": "TA",
                "id": "$ta_arm",
                "name": "ARM",
                "operator": "distinct"
            }
        ],
        "output_variables": [],
        "reference": [
            {
                "Origin": "SDTM and SDTMIG Conformance Rules",
                "Rule Identifier": {
                    "Id": "CG0294",
                    "Version": "1"
                },
                "Version": "2.0"
            }
        ],
        "rule_type": "Range & Limit",
        "sensitivity": "Record",
        "severity": "warning",
        "standards": [
            {
                "Name": "SDTMIG",
                "Version": "3.4"
            }
        ]
    },
    {
        "_links": {
            "package": {
                "href": "/mdr/rules/sdtmig/3-4",
                "title": "sdtmig Conformance Rules v3-4",
                "type": "Conformance Rules Package"
            },
            "self": {
                "href": "/mdr/rules/sdtmig/3-4/rule/0fa1bdb2-6fc0-4011-bf9e-42873ecefd84",
                "title": "CDISC.SDTMIG.CG0427",
                "type": "Conformance Rule"
            },
            "standards": [
                {
                    "href": "/mdr/sdtmig/3-4",
                    "title": "Study Data Tabulation Model Implementation Guide: Human Clinical Trials",
                    "type": "Implementation Guide"
                }
            ]
        },
        "actions": [
            {
                "name": "generate_dataset_error_objects",
                "params": {
                    "message": "Missing --STRESC value, when --RESCAT value is populated."
                }
            }
        ],
        "authority": {
            "Organization": "CDISC"
        },
        "classes": {
            "Include": [
                "Findings"
            ]
        },
        "conditions": {
            "all": [
                {
                    "name": "get_dataset",
                    "operator": "non_empty",
                    "value": {
                        "target": "--RESCAT"
                    }
                },
                {
                    "name": "get_dataset",
                    "operator": "empty",
                    "value": {
                        "target": "--STRESC"
                    }
                }
            ]
        },
        "core_id": "CDISC.SDTMIG.CG0427",
        "description": "Raise an error when --RESCAT is not empty, but --STRESC is empty",
        "domains": {
            "Include": [
                "All"
            ]
        },
        "id": "0fa1bdb2-6fc0-4011-bf9e-42873ecefd84",
        "output_variables": [
            "--RESCAT",
            "--STRESC"
        ],
        "reference": [
            {
                "Origin": "SDTM and SDTMIG Conformance Rules",
                "Rule Identifier": {
                    "Id": "CG0427",
                    "Version": "1"
                },
                "Version": "2.0"
            }
        ],
        "rule_type": "Populated Values",
        "sensitivity": "Record",
        "severity": "error",
        "standards": [
            {
                "Name": "SDTMIG",
                "Version": "3.4"
            }
        ]
    },
    {
        "_links": {
            "package": {
                "href": "/mdr/rules/sdtmig/3-4",
                "title": "sdtmig Conformance Rules v3-4",
                "type": "Conformance Rules Package"
            },
            "self": {
                "href": "/mdr/rules/sdtmig/3-4/rule/12e9b275-a577-4302-b99f-2094cc069e9e",
                "title": "CDISC.SDTMIG.CG0503",
                "type": "Conformance Rule"
            },
            "standards": [
                {
                    "href": "/mdr/sdtmig/3-4",
                    "title": "Study Data Tabulation Model Implementation Guide: Human Clinical Trials",
                    "type": "Implementation Guide"
                }
            ]
        },
        "actions": [
            {
                "name": "generate_dataset_error_objects",
                "params": {
                    "message": "MIDS variable is missing when MIDSDTC variable is present in a dataset."
                }
            }
        ],
        "authority": {
            "Organization": "CDISC"
        },
        "classes": {
            "Include": [
                "All"
            ]
        },
        "conditions": {
            "all": [
                {
                    "name": "get_dataset",
                    "operator": "exists",
                    "value": {
                        "target": "MIDSDTC"
                    }
                },
                {
                    "name": "get_dataset",
                    "operator": "not_exists",
                    "value": {
                        "target": "MIDS"
                    }
                }
            ]
        },
        "core_id": "CDISC.SDTMIG.CG0503",
        "description": "Raise an error when variable MIDSDTC is present and MIDS variable is missing.",
        "domains": {
            "Include": [
                "All"
            ]
        },
        "id": "12e9b275-a577-4302-b99f-2094cc069e9e",
        "output_variables": [
            "MIDSDTC",
            "MIDS"
        ],
        "reference": [
            {
                "Origin": "SDTM and SDTMIG Conformance Rules",
                "Rule Identifier": {
                    "Id": "CG0503",
                    "Version": "1"
                },
                "Version": "2.0"
            }
        ],
        "rule_type": "Variable Presence",
        "sensitivity": "Dataset",
        "severity": "error",
        "standards": [
            {
                "Name": "SDTMIG",
                "Version": "3.4"
            }
        ]
    },
    {
        "_links": {
            "package": {
                "href": "/mdr/rules/sdtmig/3-4",
                "title": "sdtmig Conformance Rules v3-4",
                "type": "Conformance Rules Package"
            },
            "self": {
                "href": "/mdr/rules/sdtmig/3-4/rule/13734ffc-4cd1-4f96-9f3a-5235dc610354",
                "title": "CDISC.SDTMIG.CG0060",
                "type": "Conformance Rule"
            },
            "standards": [
                {
                    "href": "/mdr/sdtmig/3-4",
                    "title": "Study Data Tabulation Model Implementation Guide: Human Clinical Trials",
                    "type": "Implementation Guide"
                }
            ]
        },
        "actions": [
            {
                "name": "generate_dataset_error_objects",
                "params": {
                    "message": "--STTPT is present in dataset, but --STRTPT is not present in dataset."
                }
            }
        ],
        "authority": {
            "Organization": "CDISC"
        },
        "classes": {
            "Include": [
                "All"
            ]
        },
        "conditions": {
            "all": [
                {
                    "name": "get_dataset",
                    "operator": "exists",
                    "value": {
                        "target": "--STTPT"
                    }
                },
                {
                    "name": "get_dataset",
                    "operator": "not_exists",
                    "value": {
                        "target": "--STRTPT"
                    }
                }
            ]
        },
        "core_id": "CDISC.SDTMIG.CG0060",
        "description": "Raise an error when --STTPT is present in dataset and --STRTPT is not present in dataset.",
        "domains": {
            "Include": [
                "All"
            ]
        },
        "id": "13734ffc-4cd1-4f96-9f3a-5235dc610354",
        "output_variables": [
            "--STTPT"
        ],
        "reference": [
            {
                "Origin": "SDTM and SDTMIG Conformance Rules",
                "Rule Identifier": {
                    "Id": "CG0060",
                    "Version": "1"
                },
                "Version": "2.0"
            }
        ],
        "rule_type": "Variable Presence",
        "sensitivity": "Dataset",
        "severity": "error",
        "standards": [
            {
                "Name": "SDTMIG",
                "Version": "3.4"
            }
        ]
    },
    {
        "_links": {
            "package": {
                "href": "/mdr/rules/sdtmig/3-4",
                "title": "sdtmig Conformance Rules v3-4",
                "type": "Conformance Rules Package"
            },
            "self": {
                "href": "/mdr/rules/sdtmig/3-4/rule/162a08c5-43b9-40c7-af1a-d364631d4095",
                "title": "CDISC.SDTMIG.CG0396",
                "type": "Conformance Rule"
            },
            "standards": [
                {
                    "href": "/mdr/sdtmig/3-4",
                    "title": "Study Data Tabulation Model Implementation Guide: Human Clinical Trials",
                    "type": "Implementation Guide"
                }
            ]
        },
        "actions": [
            {
                "name": "generate_dataset_error_objects",
                "params": {
                    "message": "AECONTRT is completed, but not equal to \"N\" or \"Y\""
                }
            }
        ],
        "authority": {
            "Organization": "CDISC"
        },
        "classes": {
            "Include": [
                "Events"
            ]
        },
        "conditions": {
            "all": [
                {
                    "name": "get_dataset",
                    "operator": "non_empty",
                    "value": {
                        "target": "AECONTRT"
                    }
                },
                {
                    "name": "get_dataset",
                    "operator": "is_not_contained_by",
                    "value": {
                        "comparator": [
                            "Y",
                            "N"
                        ],
                        "target": "AECONTRT"
                    }
                }
            ]
        },
        "core_id": "CDISC.SDTMIG.CG0396",
        "description": "Raise an error when AECONTRT is completed and value is not 'Y' or 'N'",
        "domains": {
            "Include": [
                "AE"
            ]
        },
        "id": "162a08c5-43b9-40c7-af1a-d364631d4095",
        "output_variables": [
            "AECONTRT"
        ],
        "reference": [
            {
                "Origin": "SDTM and SDTMIG Conformance Rules",
                "Rule Identifier": {
                    "Id": "CG0396",
                    "Version": "1"
                },
                "Version": "2.0"
            }
        ],
        "rule_type": "Range & Limit",
        "sensitivity": "Record",
        "severity": "error",
        "standards": [
            {
                "Name": "SDTMIG",
                "Version": "3.4"
            }
        ]
    },
    {
        "_links": {
            "package": {
                "href": "/mdr/rules/sdtmig/3-4",
                "title": "sdtmig Conformance Rules v3-4",
                "type": "Conformance Rules Package"
            },
            "self": {
                "href": "/mdr/rules/sdtmig/3-4/rule/175a9981-0d3f-43a5-a885-88854e081f25",
                "title": "CDISC.SDTMIG.CG0210",
                "type": "Conformance Rule"
            },
            "standards": [
                {
                    "href": "/mdr/sdtmig/3-4",
                    "title": "Study Data Tabulation Model Implementation Guide: Human Clinical Trials",
                    "type": "Implementation Guide"
                }
            ]
        },
        "actions": [
            {
                "name": "generate_dataset_error_objects",
                "params": {
                    "message": "Missing value for SEUPDES, when ETCD='UNPLAN'"
                }
            }
        ],
        "authority": {
            "Organization": "CDISC"
        },
        "classes": {
            "Include": [
                "Special-Purpose"
            ]
        },
        "conditions": {
            "all": [
                {
                    "name": "get_dataset",
                    "operator": "empty",
                    "value": {
                        "target": "SEUPDES"
                    }
                },
                {
                    "name": "get_dataset",
                    "operator": "equal_to",
                    "value": {
                        "comparator": "UNPLAN",
                        "target": "ETCD"
                    }
                }
            ]
        },
        "core_id": "CDISC.SDTMIG.CG0210",
        "description": "Raise an error when ETCD = 'UNPLAN', SEUPDES = null",
        "domains": {
            "Include": [
                "SE"
            ]
        },
        "id": "175a9981-0d3f-43a5-a885-88854e081f25",
        "output_variables": [],
        "reference": [
            {
                "Origin": "SDTM and SDTMIG Conformance Rules",
                "Rule Identifier": {
                    "Id": "CG0210",
                    "Version": "1"
                },
                "Version": "2.0"
            }
        ],
        "rule_type": "Consistency",
        "sensitivity": "Record",
        "severity": "error",
        "standards": [
            {
                "Name": "SDTMIG",
                "Version": "3.4"
            }
        ]
    },
    {
        "_links": {
            "package": {
                "href": "/mdr/rules/sdtmig/3-4",
                "title": "sdtmig Conformance Rules v3-4",
                "type": "Conformance Rules Package"
            },
            "self": {
                "href": "/mdr/rules/sdtmig/3-4/rule/189d254e-bbc7-49b9-8773-28d9e8ea2600",
                "title": "CDISC.SDTMIG.CG0515",
                "type": "Conformance Rule"
            },
            "standards": [
                {
                    "href": "/mdr/sdtmig/3-4",
                    "title": "Study Data Tabulation Model Implementation Guide: Human Clinical Trials",
                    "type": "Implementation Guide"
                }
            ]
        },
        "actions": [
            {
                "name": "generate_dataset_error_objects",
                "params": {
                    "message": "ACTARM is empty, but ARMNRS is not completed."
                }
            }
        ],
        "authority": {
            "Organization": "CDISC"
        },
        "classes": {
            "Include": [
                "Special-Purpose"
            ]
        },
        "conditions": {
            "all": [
                {
                    "name": "get_dataset",
                    "operator": "empty",
                    "value": {
                        "target": "ACTARM"
                    }
                },
                {
                    "name": "get_dataset",
                    "operator": "empty",
                    "value": {
                        "target": "ARMNRS"
                    }
                }
            ]
        },
        "core_id": "CDISC.SDTMIG.CG0515",
        "description": "Raise an error when ACTARM is empty and ARMNRS is not completed.",
        "domains": {
            "Include": [
                "DM"
            ]
        },
        "id": "189d254e-bbc7-49b9-8773-28d9e8ea2600",
        "output_variables": [
            "ACTARM",
            "ARMNRS"
        ],
        "reference": [
            {
                "Origin": "SDTM and SDTMIG Conformance Rules",
                "Rule Identifier": {
                    "Id": "CG0515",
                    "Version": "1"
                },
                "Version": "2.0"
            }
        ],
        "rule_type": "Value Presence",
        "sensitivity": "Record",
        "severity": "error",
        "standards": [
            {
                "Name": "SDTMIG",
                "Version": "3.4"
            }
        ]
    },
    {
        "_links": {
            "package": {
                "href": "/mdr/rules/sdtmig/3-4",
                "title": "sdtmig Conformance Rules v3-4",
                "type": "Conformance Rules Package"
            },
            "self": {
                "href": "/mdr/rules/sdtmig/3-4/rule/1c876244-6354-430b-99f5-4d30b917e6a0",
                "title": "CDISC.SDTMIG.CG0166",
                "type": "Conformance Rule"
            },
            "standards": [
                {
                    "href": "/mdr/sdtmig/3-4",
                    "title": "Study Data Tabulation Model Implementation Guide: Human Clinical Trials",
                    "type": "Implementation Guide"
                }
            ]
        },
        "actions": [
            {
                "name": "generate_dataset_error_objects",
                "params": {
                    "message": "RDOMAIN has a missing value when IDVARVAL has a non-missing value"
                }
            }
        ],
        "authority": {
            "Organization": "CDISC"
        },
        "classes": {
            "Include": [
                "Special-Purpose"
            ]
        },
        "conditions": {
            "all": [
                {
                    "name": "get_dataset",
                    "operator": "non_empty",
                    "value": {
                        "target": "IDVARVAL"
                    }
                },
                {
                    "name": "get_dataset",
                    "operator": "empty",
                    "value": {
                        "target": "RDOMAIN"
                    }
                }
            ]
        },
        "core_id": "CDISC.SDTMIG.CG0166",
        "description": "Verify RDOMAIN is not null when IDVARVAL is not null",
        "domains": {
            "Include": [
                "CO"
            ]
        },
        "id": "1c876244-6354-430b-99f5-4d30b917e6a0",
        "output_variables": [
            "RDOMAIN",
            "IDVARVAL"
        ],
        "reference": [
            {
                "Origin": "SDTM and SDTMIG Conformance Rules",
                "Rule Identifier": {
                    "Id": "CG0166",
                    "Version": "1"
                },
                "Version": "2.0"
            }
        ],
        "rule_type": "Value Presence",
        "sensitivity": "Record",
        "severity": "error",
        "standards": [
            {
                "Name": "SDTMIG",
                "Version": "3.4"
            }
        ]
    },
    {
        "_links": {
            "package": {
                "href": "/mdr/rules/sdtmig/3-4",
                "title": "sdtmig Conformance Rules v3-4",
                "type": "Conformance Rules Package"
            },
            "self": {
                "href": "/mdr/rules/sdtmig/3-4/rule/1dc09aea-64bb-4d1e-958c-a16ff2d40a70",
                "title": "CDISC.SDTMIG.CG0328",
                "type": "Conformance Rule"
            },
            "standards": [
                {
                    "href": "/mdr/sdtmig/3-4",
                    "title": "Study Data Tabulation Model Implementation Guide: Human Clinical Trials",
                    "type": "Implementation Guide"
                }
            ]
        },
        "actions": [
            {
                "name": "generate_dataset_error_objects",
                "params": {
                    "message": "At least one of TEENRL and TEDUR must be populated."
                }
            }
        ],
        "authority": {
            "Organization": "CDISC"
        },
        "classes": {
            "Include": [
                "Trial Design"
            ]
        },
        "conditions": {
            "all": [
                {
                    "any": [
                        {
                            "name": "get_dataset",
                            "operator": "empty",
                            "value": {
                                "target": "TEDUR"
                            }
                        },
                        {
                            "name": "get_dataset",
                            "operator": "not_exists",
                            "value": {
                                "target": "TEDUR"
                            }
                        }
                    ]
                },
                {
                    "any": [
                        {
                            "name": "get_dataset",
                            "operator": "empty",
                            "value": {
                                "target": "TEENRL"
                            }
                        },
                        {
                            "name": "get_dataset",
                            "operator": "not_exists",
                            "value": {
                                "target": "TEENRL"
                            }
                        }
                    ]
                }
            ]
        },
        "core_id": "CDISC.SDTMIG.CG0328",
        "description": "Either TEENRL or TEDUR must be present for each Element.",
        "domains": {
            "Include": [
                "TE"
            ]
        },
        "id": "1dc09aea-64bb-4d1e-958c-a16ff2d40a70",
        "output_variables": [
            "ETCD",
            "TEDUR",
            "TEENRL"
        ],
        "reference": [
            {
                "Origin": "SDTM and SDTMIG Conformance Rules",
                "Rule Identifier": {
                    "Id": "CG0328",
                    "Version": "1"
                },
                "Version": "2.0"
            }
        ],
        "rule_type": "Value Presence",
        "sensitivity": "Record",
        "severity": "error",
        "standards": [
            {
                "Name": "SDTMIG",
                "Version": "3.4"
            }
        ]
    },
    {
        "_links": {
            "package": {
                "href": "/mdr/rules/sdtmig/3-4",
                "title": "sdtmig Conformance Rules v3-4",
                "type": "Conformance Rules Package"
            },
            "self": {
                "href": "/mdr/rules/sdtmig/3-4/rule/1dc7103d-6507-4805-9364-4278160f0d49",
                "title": "CDISC.SDTMIG.CG0088",
                "type": "Conformance Rule"
            },
            "standards": [
                {
                    "href": "/mdr/sdtmig/3-4",
                    "title": "Study Data Tabulation Model Implementation Guide: Human Clinical Trials",
                    "type": "Implementation Guide"
                }
            ]
        },
        "actions": [
            {
                "name": "generate_dataset_error_objects",
                "params": {
                    "message": "--PRESP is missing in dataset when --OCCUR is present."
                }
            }
        ],
        "authority": {
            "Organization": "CDISC"
        },
        "classes": {
            "Include": [
                "Events",
                "Interventions"
            ]
        },
        "conditions": {
            "all": [
                {
                    "name": "get_dataset",
                    "operator": "not_exists",
                    "value": {
                        "target": "--PRESP"
                    }
                },
                {
                    "name": "get_dataset",
                    "operator": "exists",
                    "value": {
                        "target": "--OCCUR"
                    }
                }
            ]
        },
        "core_id": "CDISC.SDTMIG.CG0088",
        "description": "Raise an error when --PRESP does not exists in a dataset and --OCCUR exist.",
        "domains": {
            "Exclude": [
                "AE",
                "DS",
                "DV",
                "EX"
            ]
        },
        "id": "1dc7103d-6507-4805-9364-4278160f0d49",
        "output_variables": [
            "--PRESP",
            "--OCCUR"
        ],
        "reference": [
            {
                "Origin": "SDTM and SDTMIG Conformance Rules",
                "Rule Identifier": {
                    "Id": "CG0088",
                    "Version": "1"
                },
                "Version": "2.0"
            }
        ],
        "rule_type": "Consistency",
        "sensitivity": "Dataset",
        "severity": "error",
        "standards": [
            {
                "Name": "SDTMIG",
                "Version": "3.4"
            }
        ]
    },
    {
        "_links": {
            "package": {
                "href": "/mdr/rules/sdtmig/3-4",
                "title": "sdtmig Conformance Rules v3-4",
                "type": "Conformance Rules Package"
            },
            "self": {
                "href": "/mdr/rules/sdtmig/3-4/rule/1dcc7ab8-1ecc-4602-967c-ad21f1cb5e5c",
                "title": "CDISC.SDTMIG.CG0417",
                "type": "Conformance Rule"
            },
            "standards": [
                {
                    "href": "/mdr/sdtmig/3-4",
                    "title": "Study Data Tabulation Model Implementation Guide: Human Clinical Trials",
                    "type": "Implementation Guide"
                }
            ]
        },
        "actions": [
            {
                "name": "generate_dataset_error_objects",
                "params": {
                    "message": "QNAM > 8 chars or contains letters that are in not in uppercase, more than only letters, numbers, underscores, or starts with a number."
                }
            }
        ],
        "authority": {
            "Organization": "CDISC"
        },
        "classes": {
            "Include": [
                "Relationship"
            ]
        },
        "conditions": {
            "all": [
                {
                    "name": "get_dataset",
                    "operator": "not_matches_regex",
                    "value": {
                        "comparator": "^[A-Z_][A-Z0-9_]{0,7}$",
                        "target": "QNAM"
                    }
                }
            ]
        },
        "core_id": "CDISC.SDTMIG.CG0417",
        "description": "Raise an error when QNAM > 8 chars or contains more than only letters in uppercase, numbers and underscores, or starts with a number.",
        "domains": {
            "Include": [
                "SUPP--"
            ]
        },
        "id": "1dcc7ab8-1ecc-4602-967c-ad21f1cb5e5c",
        "output_variables": [
            "IDVAR",
            "IDVARVAL",
            "QNAM"
        ],
        "reference": [
            {
                "Origin": "SDTM and SDTMIG Conformance Rules",
                "Rule Identifier": {
                    "Id": "CG0417",
                    "Version": "1"
                },
                "Version": "2.0"
            }
        ],
        "rule_type": "Range & Limit",
        "sensitivity": "Record",
        "severity": "error",
        "standards": [
            {
                "Name": "SDTMIG",
                "Version": "3.4"
            }
        ]
    },
    {
        "_links": {
            "package": {
                "href": "/mdr/rules/sdtmig/3-4",
                "title": "sdtmig Conformance Rules v3-4",
                "type": "Conformance Rules Package"
            },
            "self": {
                "href": "/mdr/rules/sdtmig/3-4/rule/1f63cd8c-cd94-4fdf-b042-d7e2b9391c27",
                "title": "CDISC.SDTMIG.CG0191",
                "type": "Conformance Rule"
            },
            "standards": [
                {
                    "href": "/mdr/sdtmig/3-4",
                    "title": "Study Data Tabulation Model Implementation Guide: Human Clinical Trials",
                    "type": "Implementation Guide"
                }
            ]
        },
        "actions": [
            {
                "name": "generate_dataset_error_objects",
                "params": {
                    "message": "The MB dataset is not present when the MS dataset is present."
                }
            }
        ],
        "authority": {
            "Organization": "CDISC"
        },
        "classes": {
            "Include": [
                "Findings"
            ]
        },
        "conditions": {
            "all": [
                {
                    "name": "get_dataset",
                    "operator": "exists",
                    "value": {
                        "target": "MS"
                    }
                },
                {
                    "name": "get_dataset",
                    "operator": "not_exists",
                    "value": {
                        "target": "MB"
                    }
                }
            ]
        },
        "core_id": "CDISC.SDTMIG.CG0191",
        "description": "Trigger error if MS dataset is present and MB dataset is not present.",
        "domains": {
            "Include": [
                "MS"
            ]
        },
        "id": "1f63cd8c-cd94-4fdf-b042-d7e2b9391c27",
        "output_variables": [],
        "reference": [
            {
                "Origin": "SDTM and SDTMIG Conformance Rules",
                "Rule Identifier": {
                    "Id": "CG0191",
                    "Version": "1"
                },
                "Version": "2.0"
            }
        ],
        "rule_type": "Domain Presence Check",
        "sensitivity": "Dataset",
        "severity": "warning",
        "standards": [
            {
                "Name": "SDTMIG",
                "Version": "3.4"
            }
        ]
    },
    {
        "_links": {
            "package": {
                "href": "/mdr/rules/sdtmig/3-4",
                "title": "sdtmig Conformance Rules v3-4",
                "type": "Conformance Rules Package"
            },
            "self": {
                "href": "/mdr/rules/sdtmig/3-4/rule/1fcf500c-48ad-47fe-80f7-d74b7d5f7039",
                "title": "CDISC.SDTMIG.CG0049",
                "type": "Conformance Rule"
            },
            "standards": [
                {
                    "href": "/mdr/sdtmig/3-4",
                    "title": "Study Data Tabulation Model Implementation Guide: Human Clinical Trials",
                    "type": "Implementation Guide"
                }
            ]
        },
        "actions": [
            {
                "name": "generate_dataset_error_objects",
                "params": {
                    "message": "--DECOD and --PTCD do not have a one-to-one relationship"
                }
            }
        ],
        "authority": {
            "Organization": "CDISC"
        },
        "classes": {
            "Include": [
                "Events"
            ]
        },
        "conditions": {
            "all": [
                {
                    "name": "get_dataset",
                    "operator": "is_not_unique_relationship",
                    "value": {
                        "comparator": "--DECOD",
                        "target": "--PTCD"
                    }
                }
            ]
        },
        "core_id": "CDISC.SDTMIG.CG0049",
        "description": "Trigger error when --DECOD and --PTCD do not have a one-to-one relationship",
        "domains": {
            "Include": [
                "All"
            ]
        },
        "id": "1fcf500c-48ad-47fe-80f7-d74b7d5f7039",
        "output_variables": [
            "--PTCD",
            "--DECOD"
        ],
        "reference": [
            {
                "Origin": "SDTM and SDTMIG Conformance Rules",
                "Rule Identifier": {
                    "Id": "CG0049",
                    "Version": "1"
                },
                "Version": "2.0"
            }
        ],
        "rule_type": "Uniqueness",
        "sensitivity": "Domain",
        "severity": "warning",
        "standards": [
            {
                "Name": "SDTMIG",
                "Version": "3.4"
            }
        ]
    },
    {
        "_links": {
            "package": {
                "href": "/mdr/rules/sdtmig/3-4",
                "title": "sdtmig Conformance Rules v3-4",
                "type": "Conformance Rules Package"
            },
            "self": {
                "href": "/mdr/rules/sdtmig/3-4/rule/2092eed4-3bb9-4556-8462-2d79c494da01",
                "title": "CDISC.SDTMIG.CG0564",
                "type": "Conformance Rule"
            },
            "standards": [
                {
                    "href": "/mdr/sdtmig/3-4",
                    "title": "Study Data Tabulation Model Implementation Guide: Human Clinical Trials",
                    "type": "Implementation Guide"
                }
            ]
        },
        "actions": [
            {
                "name": "generate_dataset_error_objects",
                "params": {
                    "message": "--AGENT is present in a dataset other than MS."
                }
            }
        ],
        "authority": {
            "Organization": "CDISC"
        },
        "classes": {
            "Include": [
                "Findings"
            ]
        },
        "conditions": {
            "all": [
                {
                    "name": "get_dataset",
                    "operator": "exists",
                    "value": {
                        "target": "--AGENT"
                    }
                }
            ]
        },
        "core_id": "CDISC.SDTMIG.CG0564",
        "description": "Raise an error when --AGENT is present in a dataset other than MS.",
        "domains": {
            "Exclude": [
                "MS"
            ]
        },
        "id": "2092eed4-3bb9-4556-8462-2d79c494da01",
        "output_variables": [
            "--AGENT"
        ],
        "reference": [
            {
                "Origin": "SDTM and SDTMIG Conformance Rules",
                "Rule Identifier": {
                    "Id": "CG0564",
                    "Version": "1"
                },
                "Version": "2.0"
            }
        ],
        "rule_type": "Variable Presence",
        "sensitivity": "Dataset",
        "severity": "error",
        "standards": [
            {
                "Name": "SDTMIG",
                "Version": "3.4"
            }
        ]
    },
    {
        "_links": {
            "package": {
                "href": "/mdr/rules/sdtmig/3-4",
                "title": "sdtmig Conformance Rules v3-4",
                "type": "Conformance Rules Package"
            },
            "self": {
                "href": "/mdr/rules/sdtmig/3-4/rule/218cbac4-3830-4de9-ab82-9be1e4288ae4",
                "title": "CDISC.SDTMIG.CG0393",
                "type": "Conformance Rule"
            },
            "standards": [
                {
                    "href": "/mdr/sdtmig/3-4",
                    "title": "Study Data Tabulation Model Implementation Guide: Human Clinical Trials",
                    "type": "Implementation Guide"
                }
            ]
        },
        "actions": [
            {
                "name": "generate_dataset_error_objects",
                "params": {
                    "message": "AESLIFE is completed, but not equal to \"N\" or \"Y\""
                }
            }
        ],
        "authority": {
            "Organization": "CDISC"
        },
        "classes": {
            "Include": [
                "Events"
            ]
        },
        "conditions": {
            "all": [
                {
                    "name": "get_dataset",
                    "operator": "non_empty",
                    "value": {
                        "target": "AESLIFE"
                    }
                },
                {
                    "name": "get_dataset",
                    "operator": "is_not_contained_by",
                    "value": {
                        "comparator": [
                            "Y",
                            "N"
                        ],
                        "target": "AESLIFE"
                    }
                }
            ]
        },
        "core_id": "CDISC.SDTMIG.CG0393",
        "description": "Raise an error when AESLIFE is completed and value is not 'Y' or 'N'",
        "domains": {
            "Include": [
                "AE"
            ]
        },
        "id": "218cbac4-3830-4de9-ab82-9be1e4288ae4",
        "output_variables": [
            "AESLIFE"
        ],
        "reference": [
            {
                "Origin": "SDTM and SDTMIG Conformance Rules",
                "Rule Identifier": {
                    "Id": "CG0393",
                    "Version": "1"
                },
                "Version": "2.0"
            }
        ],
        "rule_type": "Range & Limit",
        "sensitivity": "Record",
        "severity": "error",
        "standards": [
            {
                "Name": "SDTMIG",
                "Version": "3.4"
            }
        ]
    },
    {
        "_links": {
            "package": {
                "href": "/mdr/rules/sdtmig/3-4",
                "title": "sdtmig Conformance Rules v3-4",
                "type": "Conformance Rules Package"
            },
            "self": {
                "href": "/mdr/rules/sdtmig/3-4/rule/21d1e2a9-d3d1-43d2-b4b2-113551c31651",
                "title": "CDISC.SDTMIG.CG0416",
                "type": "Conformance Rule"
            },
            "standards": [
                {
                    "href": "/mdr/sdtmig/3-4",
                    "title": "Study Data Tabulation Model Implementation Guide: Human Clinical Trials",
                    "type": "Implementation Guide"
                }
            ]
        },
        "actions": [
            {
                "name": "generate_dataset_error_objects",
                "params": {
                    "message": "QLABEL > 40 chars."
                }
            }
        ],
        "authority": {
            "Organization": "CDISC"
        },
        "classes": {
            "Include": [
                "Special-Purpose"
            ]
        },
        "conditions": {
            "all": [
                {
                    "name": "get_dataset",
                    "operator": "longer_than",
                    "value": {
                        "comparator": 40,
                        "target": "QLABEL"
                    }
                }
            ]
        },
        "core_id": "CDISC.SDTMIG.CG0416",
        "description": "Raise an error when QLABEL > 40 chars.",
        "domains": {
            "Include": [
                "SUPP--"
            ]
        },
        "id": "21d1e2a9-d3d1-43d2-b4b2-113551c31651",
        "output_variables": [
            "IDVAR",
            "IDVARVAL",
            "QLABEL"
        ],
        "reference": [
            {
                "Origin": "SDTM and SDTMIG Conformance Rules",
                "Rule Identifier": {
                    "Id": "CG0416",
                    "Version": "1"
                },
                "Version": "2.0"
            }
        ],
        "rule_type": "Variable Length",
        "sensitivity": "Record",
        "severity": "error",
        "standards": [
            {
                "Name": "SDTMIG",
                "Version": "3.4"
            }
        ]
    },
    {
        "_links": {
            "package": {
                "href": "/mdr/rules/sdtmig/3-4",
                "title": "sdtmig Conformance Rules v3-4",
                "type": "Conformance Rules Package"
            },
            "self": {
                "href": "/mdr/rules/sdtmig/3-4/rule/24e4a12c-7cf2-4b12-93d8-8e3e3ae84722",
                "title": "CDISC.SDTMIG.CG0062",
                "type": "Conformance Rule"
            },
            "standards": [
                {
                    "href": "/mdr/sdtmig/3-4",
                    "title": "Study Data Tabulation Model Implementation Guide: Human Clinical Trials",
                    "type": "Implementation Guide"
                }
            ]
        },
        "actions": [
            {
                "name": "generate_dataset_error_objects",
                "params": {
                    "message": "--STRTPT is present in dataset, but --STTPT is not present in dataset."
                }
            }
        ],
        "authority": {
            "Organization": "CDISC"
        },
        "classes": {
            "Include": [
                "All"
            ]
        },
        "conditions": {
            "all": [
                {
                    "name": "get_dataset",
                    "operator": "exists",
                    "value": {
                        "target": "--STRTPT"
                    }
                },
                {
                    "name": "get_dataset",
                    "operator": "not_exists",
                    "value": {
                        "target": "--STTPT"
                    }
                }
            ]
        },
        "core_id": "CDISC.SDTMIG.CG0062",
        "description": "Raise an error when --STRTPT is present in dataset and --STTPT is not present in dataset.",
        "domains": {
            "Include": [
                "All"
            ]
        },
        "id": "24e4a12c-7cf2-4b12-93d8-8e3e3ae84722",
        "output_variables": [
            "--STRTPT"
        ],
        "reference": [
            {
                "Origin": "SDTM and SDTMIG Conformance Rules",
                "Rule Identifier": {
                    "Id": "CG0062",
                    "Version": "1"
                },
                "Version": "2.0"
            }
        ],
        "rule_type": "Variable Presence",
        "sensitivity": "Dataset",
        "severity": "error",
        "standards": [
            {
                "Name": "SDTMIG",
                "Version": "3.4"
            }
        ]
    },
    {
        "_links": {
            "package": {
                "href": "/mdr/rules/sdtmig/3-4",
                "title": "sdtmig Conformance Rules v3-4",
                "type": "Conformance Rules Package"
            },
            "self": {
                "href": "/mdr/rules/sdtmig/3-4/rule/24f0c4bc-70a5-4827-a16e-ac1b415b0ab4",
                "title": "CDISC.SDTMIG.CG0520",
                "type": "Conformance Rule"
            },
            "standards": [
                {
                    "href": "/mdr/sdtmig/3-4",
                    "title": "Study Data Tabulation Model Implementation Guide: Human Clinical Trials",
                    "type": "Implementation Guide"
                }
            ]
        },
        "actions": [
            {
                "name": "generate_dataset_error_objects",
                "params": {
                    "message": "Value for ARMNRS is populated, when both ARMCD and ACTARMCD values are populated"
                }
            }
        ],
        "authority": {
            "Organization": "CDISC"
        },
        "classes": {
            "Include": [
                "Special-Purpose"
            ]
        },
        "conditions": {
            "all": [
                {
                    "name": "get_dataset",
                    "operator": "non_empty",
                    "value": {
                        "target": "ARMCD"
                    }
                },
                {
                    "name": "get_dataset",
                    "operator": "non_empty",
                    "value": {
                        "target": "ACTARMCD"
                    }
                },
                {
                    "name": "get_dataset",
                    "operator": "non_empty",
                    "value": {
                        "target": "ARMNRS"
                    }
                }
            ]
        },
        "core_id": "CDISC.SDTMIG.CG0520",
        "description": "Verify the value for ARMNRS, when both ARMCD and ACTARMCD values are populated",
        "domains": {
            "Include": [
                "DM"
            ]
        },
        "id": "24f0c4bc-70a5-4827-a16e-ac1b415b0ab4",
        "output_variables": [
            "ARMCD",
            "ACTARMCD",
            "ARMNRS"
        ],
        "reference": [
            {
                "Origin": "SDTM and SDTMIG Conformance Rules",
                "Rule Identifier": {
                    "Id": "CG0520",
                    "Version": "1"
                },
                "Version": "2.0"
            }
        ],
        "rule_type": "Value Presence",
        "sensitivity": "Record",
        "severity": "error",
        "standards": [
            {
                "Name": "SDTMIG",
                "Version": "3.4"
            }
        ]
    },
    {
        "_links": {
            "package": {
                "href": "/mdr/rules/sdtmig/3-4",
                "title": "sdtmig Conformance Rules v3-4",
                "type": "Conformance Rules Package"
            },
            "self": {
                "href": "/mdr/rules/sdtmig/3-4/rule/25003336-7730-4853-b6d5-d5d54f1922bb",
                "title": "CDISC.SDTMIG.CG0392",
                "type": "Conformance Rule"
            },
            "standards": [
                {
                    "href": "/mdr/sdtmig/3-4",
                    "title": "Study Data Tabulation Model Implementation Guide: Human Clinical Trials",
                    "type": "Implementation Guide"
                }
            ]
        },
        "actions": [
            {
                "name": "generate_dataset_error_objects",
                "params": {
                    "message": "AESHOSP is completed, but not equal to \"N\" or \"Y\""
                }
            }
        ],
        "authority": {
            "Organization": "CDISC"
        },
        "classes": {
            "Include": [
                "Events"
            ]
        },
        "conditions": {
            "all": [
                {
                    "name": "get_dataset",
                    "operator": "non_empty",
                    "value": {
                        "target": "AESHOSP"
                    }
                },
                {
                    "name": "get_dataset",
                    "operator": "is_not_contained_by",
                    "value": {
                        "comparator": [
                            "Y",
                            "N"
                        ],
                        "target": "AESHOSP"
                    }
                }
            ]
        },
        "core_id": "CDISC.SDTMIG.CG0392",
        "description": "Raise an error when AESHOSP is completed and value is not 'Y' or 'N'",
        "domains": {
            "Include": [
                "AE"
            ]
        },
        "id": "25003336-7730-4853-b6d5-d5d54f1922bb",
        "output_variables": [
            "AESHOSP"
        ],
        "reference": [
            {
                "Origin": "SDTM and SDTMIG Conformance Rules",
                "Rule Identifier": {
                    "Id": "CG0392",
                    "Version": "1"
                },
                "Version": "2.0"
            }
        ],
        "rule_type": "Range & Limit",
        "sensitivity": "Record",
        "severity": "error",
        "standards": [
            {
                "Name": "SDTMIG",
                "Version": "3.4"
            }
        ]
    },
    {
        "_links": {
            "package": {
                "href": "/mdr/rules/sdtmig/3-4",
                "title": "sdtmig Conformance Rules v3-4",
                "type": "Conformance Rules Package"
            },
            "self": {
                "href": "/mdr/rules/sdtmig/3-4/rule/28fedb20-6d20-4506-a36f-db79c073298c",
                "title": "CDISC.SDTMIG.CG0553",
                "type": "Conformance Rule"
            },
            "standards": [
                {
                    "href": "/mdr/sdtmig/3-4",
                    "title": "Study Data Tabulation Model Implementation Guide: Human Clinical Trials",
                    "type": "Implementation Guide"
                }
            ]
        },
        "actions": [
            {
                "name": "generate_dataset_error_objects",
                "params": {
                    "message": "--ORRES is missing even though --LOBXFL= \"Y\" and either --DRVFL is not present in dataset or is not equal to \"Y\""
                }
            }
        ],
        "authority": {
            "Organization": "CDISC"
        },
        "classes": {
            "Include": [
                "Findings"
            ]
        },
        "conditions": {
            "all": [
                {
                    "name": "get_dataset",
                    "operator": "empty",
                    "value": {
                        "target": "--ORRES"
                    }
                },
                {
                    "name": "get_dataset",
                    "operator": "equal_to",
                    "value": {
                        "comparator": "Y",
                        "target": "--LOBXFL"
                    }
                },
                {
                    "any": [
                        {
                            "name": "get_dataset",
                            "operator": "not_exists",
                            "value": {
                                "target": "--DRVFL"
                            }
                        },
                        {
                            "name": "get_dataset",
                            "operator": "not_equal_to",
                            "value": {
                                "comparator": "Y",
                                "target": "--DRVFL"
                            }
                        }
                    ]
                }
            ]
        },
        "core_id": "CDISC.SDTMIG.CG0553",
        "description": "Verify that --ORRES is not null when --LOBXFL = Y and --DRVFL= null or --DRVFL is not present in the dataset",
        "domains": {
            "Include": [
                "All"
            ]
        },
        "id": "28fedb20-6d20-4506-a36f-db79c073298c",
        "output_variables": [
            "--ORRES",
            "--LOBXFL",
            "--DRVFL"
        ],
        "reference": [
            {
                "Origin": "SDTM and SDTMIG Conformance Rules",
                "Rule Identifier": {
                    "Id": "CG0553",
                    "Version": "2"
                },
                "Version": "2.0"
            }
        ],
        "rule_type": "Value Presence",
        "sensitivity": "Record",
        "severity": "error",
        "standards": [
            {
                "Name": "SDTMIG",
                "Version": "3.4"
            }
        ]
    },
    {
        "_links": {
            "package": {
                "href": "/mdr/rules/sdtmig/3-4",
                "title": "sdtmig Conformance Rules v3-4",
                "type": "Conformance Rules Package"
            },
            "self": {
                "href": "/mdr/rules/sdtmig/3-4/rule/2c4c70bd-fcdb-4d48-b2eb-9f4f2ef79e1f",
                "title": "CDISC.SDTMIG.CG0341",
                "type": "Conformance Rule"
            },
            "standards": [
                {
                    "href": "/mdr/sdtmig/3-4",
                    "title": "Study Data Tabulation Model Implementation Guide: Human Clinical Trials",
                    "type": "Implementation Guide"
                }
            ]
        },
        "actions": [
            {
                "name": "generate_dataset_error_objects",
                "params": {
                    "message": "--TESTCD is equal to 'OTHER'"
                }
            }
        ],
        "authority": {
            "Organization": "CDISC"
        },
        "classes": {
            "Include": [
                "Findings"
            ]
        },
        "conditions": {
            "all": [
                {
                    "name": "get_dataset",
                    "operator": "equal_to",
                    "value": {
                        "comparator": "OTHER",
                        "target": "--TESTCD"
                    }
                }
            ]
        },
        "core_id": "CDISC.SDTMIG.CG0341",
        "description": "Raise an error when --TESTCD = 'OTHER'",
        "domains": {
            "Include": [
                "All"
            ]
        },
        "id": "2c4c70bd-fcdb-4d48-b2eb-9f4f2ef79e1f",
        "output_variables": [
            "--TESTCD"
        ],
        "reference": [
            {
                "Origin": "SDTM and SDTMIG Conformance Rules",
                "Rule Identifier": {
                    "Id": "CG0341",
                    "Version": "1"
                },
                "Version": "2.0"
            }
        ],
        "rule_type": "Range & Limit",
        "sensitivity": "Record",
        "severity": "error",
        "standards": [
            {
                "Name": "SDTMIG",
                "Version": "3.4"
            }
        ]
    },
    {
        "_links": {
            "package": {
                "href": "/mdr/rules/sdtmig/3-4",
                "title": "sdtmig Conformance Rules v3-4",
                "type": "Conformance Rules Package"
            },
            "self": {
                "href": "/mdr/rules/sdtmig/3-4/rule/2f067a90-c6c8-4e77-8d62-f26f7a64c81d",
                "title": "CDISC.SDTMIG.CG0354",
                "type": "Conformance Rule"
            },
            "standards": [
                {
                    "href": "/mdr/sdtmig/3-4",
                    "title": "Study Data Tabulation Model Implementation Guide: Human Clinical Trials",
                    "type": "Implementation Guide"
                }
            ]
        },
        "actions": [
            {
                "name": "generate_dataset_error_objects",
                "params": {
                    "message": "--REASEX must never be used in SDTM-based human trials"
                }
            }
        ],
        "authority": {
            "Organization": "CDISC"
        },
        "classes": {
            "Include": [
                "All"
            ]
        },
        "conditions": {
            "all": [
                {
                    "name": "get_dataset",
                    "operator": "exists",
                    "value": {
                        "target": "--REASEX"
                    }
                }
            ]
        },
        "core_id": "CDISC.SDTMIG.CG0354",
        "description": "Raise an error when --REASEX is present in dataset.",
        "domains": {
            "Include": [
                "All"
            ]
        },
        "id": "2f067a90-c6c8-4e77-8d62-f26f7a64c81d",
        "output_variables": [
            "--REASEX"
        ],
        "reference": [
            {
                "Origin": "SDTM and SDTMIG Conformance Rules",
                "Rule Identifier": {
                    "Id": "CG0354",
                    "Version": "1"
                },
                "Version": "2.0"
            }
        ],
        "rule_type": "Variable Presence",
        "sensitivity": "Variable",
        "severity": "error",
        "standards": [
            {
                "Name": "SDTMIG",
                "Version": "3.4"
            }
        ]
    },
    {
        "_links": {
            "package": {
                "href": "/mdr/rules/sdtmig/3-4",
                "title": "sdtmig Conformance Rules v3-4",
                "type": "Conformance Rules Package"
            },
            "self": {
                "href": "/mdr/rules/sdtmig/3-4/rule/2f48d438-b498-4ef7-8093-7e9f75d44564",
                "title": "CDISC.SDTMIG.CG0348",
                "type": "Conformance Rule"
            },
            "standards": [
                {
                    "href": "/mdr/sdtmig/3-4",
                    "title": "Study Data Tabulation Model Implementation Guide: Human Clinical Trials",
                    "type": "Implementation Guide"
                }
            ]
        },
        "actions": [
            {
                "name": "generate_dataset_error_objects",
                "params": {
                    "message": "--ORRES cannot be null when --STAT is null or --DRVFL not equal to 'Y'"
                }
            }
        ],
        "authority": {
            "Organization": "CDISC"
        },
        "classes": {
            "Include": [
                "Findings"
            ]
        },
        "conditions": {
            "all": [
                {
                    "any": [
                        {
                            "name": "get_dataset",
                            "operator": "empty",
                            "value": {
                                "target": "--STAT"
                            }
                        },
                        {
                            "name": "get_dataset",
                            "operator": "not_equal_to",
                            "value": {
                                "comparator": "Y",
                                "target": "--DRVFL"
                            }
                        }
                    ]
                },
                {
                    "all": [
                        {
                            "name": "get_dataset",
                            "operator": "empty",
                            "value": {
                                "target": "--ORRES"
                            }
                        }
                    ]
                }
            ]
        },
        "core_id": "CDISC.SDTMIG.CG0348",
        "description": "Verify that --ORRES is not missing when either --STAT is null or --DRVFL not equal to 'Y'",
        "domains": {
            "Include": [
                "All"
            ]
        },
        "id": "2f48d438-b498-4ef7-8093-7e9f75d44564",
        "output_variables": [
            "--STAT",
            "--DRVFL",
            "--ORRES"
        ],
        "reference": [
            {
                "Origin": "SDTM and SDTMIG Conformance Rules",
                "Rule Identifier": {
                    "Id": "CG0348",
                    "Version": "1"
                },
                "Version": "2.0"
            }
        ],
        "rule_type": "Populated Values",
        "sensitivity": "Value",
        "severity": "error",
        "standards": [
            {
                "Name": "SDTMIG",
                "Version": "3.4"
            }
        ]
    },
    {
        "_links": {
            "package": {
                "href": "/mdr/rules/sdtmig/3-4",
                "title": "sdtmig Conformance Rules v3-4",
                "type": "Conformance Rules Package"
            },
            "self": {
                "href": "/mdr/rules/sdtmig/3-4/rule/3016e56e-e70f-4feb-aa62-b445e6db1cba",
                "title": "CDISC.SDTMIG.CG0653",
                "type": "Conformance Rule"
            },
            "standards": [
                {
                    "href": "/mdr/sdtmig/3-4",
                    "title": "Study Data Tabulation Model Implementation Guide: Human Clinical Trials",
                    "type": "Implementation Guide"
                }
            ]
        },
        "actions": [
            {
                "name": "generate_dataset_error_objects",
                "params": {
                    "message": "SVPRESP is not null and not equal to \"Y\". Values should be \"Y\" or null."
                }
            }
        ],
        "authority": {
            "Organization": "CDISC"
        },
        "classes": {
            "Include": [
                "Special-Purpose"
            ]
        },
        "conditions": {
            "all": [
                {
                    "name": "get_dataset",
                    "operator": "not_equal_to",
                    "value": {
                        "comparator": "Y",
                        "target": "SVPRESP"
                    }
                },
                {
                    "name": "get_dataset",
                    "operator": "non_empty",
                    "value": {
                        "target": "SVPRESP"
                    }
                }
            ]
        },
        "core_id": "CDISC.SDTMIG.CG0653",
        "description": "Raise an error when SVPRESP not \"Y\" or null.",
        "domains": {
            "Include": [
                "SV"
            ]
        },
        "id": "3016e56e-e70f-4feb-aa62-b445e6db1cba",
        "output_variables": [],
        "reference": [
            {
                "Origin": "SDTM and SDTMIG Conformance Rules",
                "Rule Identifier": {
                    "Id": "CG0653",
                    "Version": "1"
                },
                "Version": "2.0"
            }
        ],
        "rule_type": "Range & Limit",
        "sensitivity": "Record",
        "severity": "error",
        "standards": [
            {
                "Name": "SDTMIG",
                "Version": "3.4"
            }
        ]
    },
    {
        "_links": {
            "package": {
                "href": "/mdr/rules/sdtmig/3-4",
                "title": "sdtmig Conformance Rules v3-4",
                "type": "Conformance Rules Package"
            },
            "self": {
                "href": "/mdr/rules/sdtmig/3-4/rule/30472db7-3101-4c82-8c44-ae4f8d94695a",
                "title": "CDISC.SDTMIG.CG0388",
                "type": "Conformance Rule"
            },
            "standards": [
                {
                    "href": "/mdr/sdtmig/3-4",
                    "title": "Study Data Tabulation Model Implementation Guide: Human Clinical Trials",
                    "type": "Implementation Guide"
                }
            ]
        },
        "actions": [
            {
                "name": "generate_dataset_error_objects",
                "params": {
                    "message": "AESCAN is completed, but not equal to \"N\" or \"Y\""
                }
            }
        ],
        "authority": {
            "Organization": "CDISC"
        },
        "classes": {
            "Include": [
                "Events"
            ]
        },
        "conditions": {
            "all": [
                {
                    "name": "get_dataset",
                    "operator": "non_empty",
                    "value": {
                        "target": "AESCAN"
                    }
                },
                {
                    "name": "get_dataset",
                    "operator": "is_not_contained_by",
                    "value": {
                        "comparator": [
                            "Y",
                            "N"
                        ],
                        "target": "AESCAN"
                    }
                }
            ]
        },
        "core_id": "CDISC.SDTMIG.CG0388",
        "description": "Raise an error when AESCAN is completed and value is not 'Y' or 'N'",
        "domains": {
            "Include": [
                "AE"
            ]
        },
        "id": "30472db7-3101-4c82-8c44-ae4f8d94695a",
        "output_variables": [
            "AESCAN"
        ],
        "reference": [
            {
                "Origin": "SDTM and SDTMIG Conformance Rules",
                "Rule Identifier": {
                    "Id": "CG0388",
                    "Version": "1"
                },
                "Version": "2.0"
            }
        ],
        "rule_type": "Range & Limit",
        "sensitivity": "Record",
        "severity": "error",
        "standards": [
            {
                "Name": "SDTMIG",
                "Version": "3.4"
            }
        ]
    },
    {
        "_links": {
            "package": {
                "href": "/mdr/rules/sdtmig/3-4",
                "title": "sdtmig Conformance Rules v3-4",
                "type": "Conformance Rules Package"
            },
            "self": {
                "href": "/mdr/rules/sdtmig/3-4/rule/32a1907b-fe88-470b-8505-b110c7a1393f",
                "title": "CDISC.SDTMIG.CG0356",
                "type": "Conformance Rule"
            },
            "standards": [
                {
                    "href": "/mdr/sdtmig/3-4",
                    "title": "Study Data Tabulation Model Implementation Guide: Human Clinical Trials",
                    "type": "Implementation Guide"
                }
            ]
        },
        "actions": [
            {
                "name": "generate_dataset_error_objects",
                "params": {
                    "message": "SPECIES is present in DM dataset."
                }
            }
        ],
        "authority": {
            "Organization": "CDISC"
        },
        "classes": {
            "Include": [
                "Special-Purpose"
            ]
        },
        "conditions": {
            "all": [
                {
                    "name": "get_dataset",
                    "operator": "exists",
                    "value": {
                        "target": "SPECIES"
                    }
                }
            ]
        },
        "core_id": "CDISC.SDTMIG.CG0356",
        "description": "Verify variable SPECIES does not exist in DM dataset",
        "domains": {
            "Include": [
                "DM"
            ]
        },
        "id": "32a1907b-fe88-470b-8505-b110c7a1393f",
        "output_variables": [
            "SPECIES"
        ],
        "reference": [
            {
                "Origin": "SDTM and SDTMIG Conformance Rules",
                "Rule Identifier": {
                    "Id": "CG0356",
                    "Version": "1"
                },
                "Version": "2.0"
            }
        ],
        "rule_type": "Variable Presence",
        "sensitivity": "Dataset",
        "severity": "error",
        "standards": [
            {
                "Name": "SDTMIG",
                "Version": "3.4"
            }
        ]
    },
    {
        "_links": {
            "package": {
                "href": "/mdr/rules/sdtmig/3-4",
                "title": "sdtmig Conformance Rules v3-4",
                "type": "Conformance Rules Package"
            },
            "self": {
                "href": "/mdr/rules/sdtmig/3-4/rule/3527101f-db7b-46f0-aed1-614354d09123",
                "title": "CDISC.SDTMIG.CG0530",
                "type": "Conformance Rule"
            },
            "standards": [
                {
                    "href": "/mdr/sdtmig/3-4",
                    "title": "Study Data Tabulation Model Implementation Guide: Human Clinical Trials",
                    "type": "Implementation Guide"
                }
            ]
        },
        "actions": [
            {
                "name": "generate_dataset_error_objects",
                "params": {
                    "message": "RFENDTC is not blank when ARMNRS is provided."
                }
            }
        ],
        "authority": {
            "Organization": "CDISC"
        },
        "classes": {
            "Include": [
                "Special-Purpose"
            ]
        },
        "conditions": {
            "all": [
                {
                    "name": "get_dataset",
                    "operator": "non_empty",
                    "value": {
                        "target": "ARMNRS"
                    }
                },
                {
                    "name": "get_dataset",
                    "operator": "non_empty",
                    "value": {
                        "target": "RFENDTC"
                    }
                }
            ]
        },
        "core_id": "CDISC.SDTMIG.CG0530",
        "description": "Raise an error when ARMNRS is not blank and RFENDTC is provided.",
        "domains": {
            "Include": [
                "DM"
            ]
        },
        "id": "3527101f-db7b-46f0-aed1-614354d09123",
        "output_variables": [
            "ARMNRS",
            "RFENDTC"
        ],
        "reference": [
            {
                "Origin": "SDTM and SDTMIG Conformance Rules",
                "Rule Identifier": {
                    "Id": "CG0530",
                    "Version": "1"
                },
                "Version": "2.0"
            }
        ],
        "rule_type": "Consistency",
        "sensitivity": "Record",
        "severity": "error",
        "standards": [
            {
                "Name": "SDTMIG",
                "Version": "3.4"
            }
        ]
    },
    {
        "_links": {
            "package": {
                "href": "/mdr/rules/sdtmig/3-4",
                "title": "sdtmig Conformance Rules v3-4",
                "type": "Conformance Rules Package"
            },
            "self": {
                "href": "/mdr/rules/sdtmig/3-4/rule/361e8006-8983-4eb9-91de-5663a83fd2dc",
                "title": "CDISC.SDTMIG.CG0358",
                "type": "Conformance Rule"
            },
            "standards": [
                {
                    "href": "/mdr/sdtmig/3-4",
                    "title": "Study Data Tabulation Model Implementation Guide: Human Clinical Trials",
                    "type": "Implementation Guide"
                }
            ]
        },
        "actions": [
            {
                "name": "generate_dataset_error_objects",
                "params": {
                    "message": "SBSTRAIN is present in DM dataset."
                }
            }
        ],
        "authority": {
            "Organization": "CDISC"
        },
        "classes": {
            "Include": [
                "Special-Purpose"
            ]
        },
        "conditions": {
            "all": [
                {
                    "name": "get_dataset",
                    "operator": "exists",
                    "value": {
                        "target": "SBSTRAIN"
                    }
                }
            ]
        },
        "core_id": "CDISC.SDTMIG.CG0358",
        "description": "Verify variable SBSTRAIN does not exist in DM dataset",
        "domains": {
            "Include": [
                "DM"
            ]
        },
        "id": "361e8006-8983-4eb9-91de-5663a83fd2dc",
        "output_variables": [
            "SBSTRAIN"
        ],
        "reference": [
            {
                "Origin": "SDTM and SDTMIG Conformance Rules",
                "Rule Identifier": {
                    "Id": "CG0358",
                    "Version": "1"
                },
                "Version": "2.0"
            }
        ],
        "rule_type": "Variable Presence",
        "sensitivity": "Dataset",
        "severity": "error",
        "standards": [
            {
                "Name": "SDTMIG",
                "Version": "3.4"
            }
        ]
    },
    {
        "_links": {
            "package": {
                "href": "/mdr/rules/sdtmig/3-4",
                "title": "sdtmig Conformance Rules v3-4",
                "type": "Conformance Rules Package"
            },
            "self": {
                "href": "/mdr/rules/sdtmig/3-4/rule/387842b7-69e4-4210-97a8-d9c26dd6b5ae",
                "title": "CDISC.SDTMIG.CG0260",
                "type": "Conformance Rule"
            },
            "standards": [
                {
                    "href": "/mdr/sdtmig/3-4",
                    "title": "Study Data Tabulation Model Implementation Guide: Human Clinical Trials",
                    "type": "Implementation Guide"
                }
            ]
        },
        "actions": [
            {
                "name": "generate_dataset_error_objects",
                "params": {
                    "message": "TSVALNF is not null when TSVAL is populated"
                }
            }
        ],
        "authority": {
            "Organization": "CDISC"
        },
        "classes": {
            "Include": [
                "Trial Design"
            ]
        },
        "conditions": {
            "all": [
                {
                    "name": "get_dataset",
                    "operator": "non_empty",
                    "value": {
                        "target": "TSVAL"
                    }
                },
                {
                    "name": "get_dataset",
                    "operator": "non_empty",
                    "value": {
                        "target": "TSVALNF"
                    }
                }
            ]
        },
        "core_id": "CDISC.SDTMIG.CG0260",
        "description": "Trigger error when TSVAL is populated and TSVALNF is also populated.",
        "domains": {
            "Include": [
                "TS"
            ]
        },
        "id": "387842b7-69e4-4210-97a8-d9c26dd6b5ae",
        "output_variables": [],
        "reference": [
            {
                "Origin": "SDTM and SDTMIG Conformance Rules",
                "Rule Identifier": {
                    "Id": "CG0260",
                    "Version": "1"
                },
                "Version": "2.0"
            }
        ],
        "rule_type": "Value Presence",
        "sensitivity": "Record",
        "severity": "error",
        "standards": [
            {
                "Name": "SDTMIG",
                "Version": "3.4"
            }
        ]
    },
    {
        "_links": {
            "package": {
                "href": "/mdr/rules/sdtmig/3-4",
                "title": "sdtmig Conformance Rules v3-4",
                "type": "Conformance Rules Package"
            },
            "self": {
                "href": "/mdr/rules/sdtmig/3-4/rule/388226fc-2ad2-48b4-bf1e-79369a5b11e9",
                "title": "CDISC.SDTMIG.CG0648",
                "type": "Conformance Rule"
            },
            "standards": [
                {
                    "href": "/mdr/sdtmig/3-4",
                    "title": "Study Data Tabulation Model Implementation Guide: Human Clinical Trials",
                    "type": "Implementation Guide"
                }
            ]
        },
        "actions": [
            {
                "name": "generate_dataset_error_objects",
                "params": {
                    "message": "TP dataset is present."
                }
            }
        ],
        "authority": {
            "Organization": "CDISC"
        },
        "classes": {
            "Include": [
                "All"
            ]
        },
        "conditions": {
            "all": [
                {
                    "name": "get_dataset",
                    "operator": "exists",
                    "value": {
                        "target": "TP"
                    }
                }
            ]
        },
        "core_id": "CDISC.SDTMIG.CG0648",
        "description": "Raise an error when TP dataset is present.",
        "domains": {
            "Include": [
                "TP"
            ]
        },
        "id": "388226fc-2ad2-48b4-bf1e-79369a5b11e9",
        "output_variables": [],
        "reference": [
            {
                "Origin": "SDTM and SDTMIG Conformance Rules",
                "Rule Identifier": {
                    "Id": "CG0648",
                    "Version": "1"
                },
                "Version": "2.0"
            }
        ],
        "rule_type": "Domain Presence Check",
        "sensitivity": "Study",
        "severity": "error",
        "standards": [
            {
                "Name": "SDTMIG",
                "Version": "3.4"
            }
        ]
    },
    {
        "_links": {
            "package": {
                "href": "/mdr/rules/sdtmig/3-4",
                "title": "sdtmig Conformance Rules v3-4",
                "type": "Conformance Rules Package"
            },
            "self": {
                "href": "/mdr/rules/sdtmig/3-4/rule/3a2770dc-0acb-49f9-9de8-df7179c0762f",
                "title": "CDISC.SDTMIG.CG0100",
                "type": "Conformance Rule"
            },
            "standards": [
                {
                    "href": "/mdr/sdtmig/3-4",
                    "title": "Study Data Tabulation Model Implementation Guide: Human Clinical Trials",
                    "type": "Implementation Guide"
                }
            ]
        },
        "actions": [
            {
                "name": "generate_dataset_error_objects",
                "params": {
                    "message": "ECOCCUR is not 'N', ECSTAT and ECDOSTXT are both empty but ECDOSE is less than or equal to 0."
                }
            }
        ],
        "authority": {
            "Organization": "CDISC"
        },
        "classes": {
            "Include": [
                "Interventions"
            ]
        },
        "conditions": {
            "all": [
                {
                    "name": "get_dataset",
                    "operator": "not_equal_to",
                    "value": {
                        "comparator": "N",
                        "target": "ECOCCUR"
                    }
                },
                {
                    "name": "get_dataset",
                    "operator": "empty",
                    "value": {
                        "target": "ECSTAT"
                    }
                },
                {
                    "name": "get_dataset",
                    "operator": "empty",
                    "value": {
                        "target": "ECDOSTXT"
                    }
                },
                {
                    "name": "get_dataset",
                    "operator": "less_than_or_equal_to",
                    "value": {
                        "comparator": 0,
                        "target": "ECDOSE"
                    }
                }
            ]
        },
        "core_id": "CDISC.SDTMIG.CG0100",
        "description": "Raise an error when ECOCCUR is not equal to 'N', ECSTAT and ECDOSTXT are both empty but ECDOSE less than or equal to 0.",
        "domains": {
            "Include": [
                "EC"
            ]
        },
        "id": "3a2770dc-0acb-49f9-9de8-df7179c0762f",
        "output_variables": [
            "ECOCCUR",
            "ECSTAT",
            "ECDOSTXT",
            "ECDOSE",
            "ECSTDTC"
        ],
        "reference": [
            {
                "Origin": "SDTM and SDTMIG Conformance Rules",
                "Rule Identifier": {
                    "Id": "CG0100",
                    "Version": "2"
                },
                "Version": "2.0"
            }
        ],
        "rule_type": "Range & Limit",
        "sensitivity": "Record",
        "severity": "error",
        "standards": [
            {
                "Name": "SDTMIG",
                "Version": "3.4"
            }
        ]
    },
    {
        "_links": {
            "package": {
                "href": "/mdr/rules/sdtmig/3-4",
                "title": "sdtmig Conformance Rules v3-4",
                "type": "Conformance Rules Package"
            },
            "self": {
                "href": "/mdr/rules/sdtmig/3-4/rule/3ae92f3e-5434-4fac-be65-6fd900218a90",
                "title": "CDISC.SDTMIG.CG0301",
                "type": "Conformance Rule"
            },
            "standards": [
                {
                    "href": "/mdr/sdtmig/3-4",
                    "title": "Study Data Tabulation Model Implementation Guide: Human Clinical Trials",
                    "type": "Implementation Guide"
                }
            ]
        },
        "actions": [
            {
                "name": "generate_dataset_error_objects",
                "params": {
                    "message": "TRDIR is present."
                }
            }
        ],
        "authority": {
            "Organization": "CDISC"
        },
        "classes": {
            "Include": [
                "Findings"
            ]
        },
        "conditions": {
            "all": [
                {
                    "name": "get_dataset",
                    "operator": "exists",
                    "value": {
                        "target": "TRDIR"
                    }
                }
            ]
        },
        "core_id": "CDISC.SDTMIG.CG0301",
        "description": "Raise an error when TRDIR is present.",
        "domains": {
            "Include": [
                "TR"
            ]
        },
        "id": "3ae92f3e-5434-4fac-be65-6fd900218a90",
        "output_variables": [],
        "reference": [
            {
                "Origin": "SDTM and SDTMIG Conformance Rules",
                "Rule Identifier": {
                    "Id": "CG0301",
                    "Version": "1"
                },
                "Version": "2.0"
            }
        ],
        "rule_type": "Variable Presence",
        "sensitivity": "Dataset",
        "severity": "error",
        "standards": [
            {
                "Name": "SDTMIG",
                "Version": "3.4"
            }
        ]
    },
    {
        "_links": {
            "package": {
                "href": "/mdr/rules/sdtmig/3-4",
                "title": "sdtmig Conformance Rules v3-4",
                "type": "Conformance Rules Package"
            },
            "self": {
                "href": "/mdr/rules/sdtmig/3-4/rule/3b208ea4-d446-4150-88bc-9dd4c92c0e46",
                "title": "CDISC.SDTMIG.CG0643",
                "type": "Conformance Rule"
            },
            "standards": [
                {
                    "href": "/mdr/sdtmig/3-4",
                    "title": "Study Data Tabulation Model Implementation Guide: Human Clinical Trials",
                    "type": "Implementation Guide"
                }
            ]
        },
        "actions": [
            {
                "name": "generate_dataset_error_objects",
                "params": {
                    "message": "STRAIN is present."
                }
            }
        ],
        "authority": {
            "Organization": "CDISC"
        },
        "classes": {
            "Include": [
                "Special-Purpose"
            ]
        },
        "conditions": {
            "all": [
                {
                    "name": "get_dataset",
                    "operator": "exists",
                    "value": {
                        "target": "STRAIN"
                    }
                }
            ]
        },
        "core_id": "CDISC.SDTMIG.CG0643",
        "description": "Raise an error when STRAIN is present.",
        "domains": {
            "Include": [
                "DM"
            ]
        },
        "id": "3b208ea4-d446-4150-88bc-9dd4c92c0e46",
        "output_variables": [],
        "reference": [
            {
                "Origin": "SDTM and SDTMIG Conformance Rules",
                "Rule Identifier": {
                    "Id": "CG0643",
                    "Version": "1"
                },
                "Version": "2.0"
            }
        ],
        "rule_type": "Variable Presence",
        "sensitivity": "Dataset",
        "severity": "error",
        "standards": [
            {
                "Name": "SDTMIG",
                "Version": "3.4"
            }
        ]
    },
    {
        "_links": {
            "package": {
                "href": "/mdr/rules/sdtmig/3-4",
                "title": "sdtmig Conformance Rules v3-4",
                "type": "Conformance Rules Package"
            },
            "self": {
                "href": "/mdr/rules/sdtmig/3-4/rule/3b29ce79-2e4f-4ff8-bcec-3b6c817e57c2",
                "title": "CDISC.SDTMIG.CG0149",
                "type": "Conformance Rule"
            },
            "standards": [
                {
                    "href": "/mdr/sdtmig/3-4",
                    "title": "Study Data Tabulation Model Implementation Guide: Human Clinical Trials",
                    "type": "Implementation Guide"
                }
            ]
        },
        "actions": [
            {
                "name": "generate_dataset_error_objects",
                "params": {
                    "message": "SETCD value length is greater than 8"
                }
            }
        ],
        "authority": {
            "Organization": "CDISC"
        },
        "classes": {
            "Include": [
                "Special-Purpose",
                "Trial Design"
            ]
        },
        "conditions": {
            "all": [
                {
                    "name": "get_dataset",
                    "operator": "matches_regex",
                    "value": {
                        "comparator": "^(.){9,}$",
                        "target": "SETCD"
                    }
                }
            ]
        },
        "core_id": "CDISC.SDTMIG.CG0149",
        "description": "Verify that the length of value in SETCD variable is <= 8",
        "domains": {
            "Include": [
                "DM",
                "TX"
            ]
        },
        "id": "3b29ce79-2e4f-4ff8-bcec-3b6c817e57c2",
        "output_variables": [
            "SETCD"
        ],
        "reference": [
            {
                "Origin": "SDTM and SDTMIG Conformance Rules",
                "Rule Identifier": {
                    "Id": "CG0149",
                    "Version": "1"
                },
                "Version": "2.0"
            }
        ],
        "rule_type": "Variable Length",
        "sensitivity": "Record",
        "severity": "error",
        "standards": [
            {
                "Name": "SDTMIG",
                "Version": "3.4"
            }
        ]
    },
    {
        "_links": {
            "package": {
                "href": "/mdr/rules/sdtmig/3-4",
                "title": "sdtmig Conformance Rules v3-4",
                "type": "Conformance Rules Package"
            },
            "self": {
                "href": "/mdr/rules/sdtmig/3-4/rule/3dbd5f28-0c48-4d16-b54c-21d41ac2cc43",
                "title": "CDISC.SDTMIG.CG0567",
                "type": "Conformance Rule"
            },
            "standards": [
                {
                    "href": "/mdr/sdtmig/3-4",
                    "title": "Study Data Tabulation Model Implementation Guide: Human Clinical Trials",
                    "type": "Implementation Guide"
                }
            ]
        },
        "actions": [
            {
                "name": "generate_dataset_error_objects",
                "params": {
                    "message": "--EVDTYP is present in a dataset other than MH."
                }
            }
        ],
        "authority": {
            "Organization": "CDISC"
        },
        "classes": {
            "Include": [
                "Findings"
            ]
        },
        "conditions": {
            "all": [
                {
                    "name": "get_dataset",
                    "operator": "exists",
                    "value": {
                        "target": "--EVDTYP"
                    }
                }
            ]
        },
        "core_id": "CDISC.SDTMIG.CG0567",
        "description": "Raise an error when --EVDTYP is present in a dataset other than MH.",
        "domains": {
            "Exclude": [
                "MH"
            ]
        },
        "id": "3dbd5f28-0c48-4d16-b54c-21d41ac2cc43",
        "output_variables": [
            "--EVDTYP"
        ],
        "reference": [
            {
                "Origin": "SDTM and SDTMIG Conformance Rules",
                "Rule Identifier": {
                    "Id": "CG0567",
                    "Version": "1"
                },
                "Version": "2.0"
            }
        ],
        "rule_type": "Variable Presence",
        "sensitivity": "Dataset",
        "severity": "error",
        "standards": [
            {
                "Name": "SDTMIG",
                "Version": "3.4"
            }
        ]
    },
    {
        "_links": {
            "package": {
                "href": "/mdr/rules/sdtmig/3-4",
                "title": "sdtmig Conformance Rules v3-4",
                "type": "Conformance Rules Package"
            },
            "self": {
                "href": "/mdr/rules/sdtmig/3-4/rule/3e614de2-fe82-4a03-bb56-7051ad99569e",
                "title": "CDISC.SDTMIG.CG0429",
                "type": "Conformance Rule"
            },
            "standards": [
                {
                    "href": "/mdr/sdtmig/3-4",
                    "title": "Study Data Tabulation Model Implementation Guide: Human Clinical Trials",
                    "type": "Implementation Guide"
                }
            ]
        },
        "actions": [
            {
                "name": "generate_dataset_error_objects",
                "params": {
                    "message": "--CAT should not be null when --SCAT is populated"
                }
            }
        ],
        "authority": {
            "Organization": "CDISC"
        },
        "classes": {
            "Include": [
                "All"
            ]
        },
        "conditions": {
            "all": [
                {
                    "name": "get_dataset",
                    "operator": "non_empty",
                    "value": {
                        "target": "--SCAT"
                    }
                },
                {
                    "name": "get_dataset",
                    "operator": "empty",
                    "value": {
                        "target": "--CAT"
                    }
                }
            ]
        },
        "core_id": "CDISC.SDTMIG.CG0429",
        "description": "Raise an error when --SCAT is not empty, but --CAT is empty.",
        "domains": {
            "Include": [
                "All"
            ]
        },
        "id": "3e614de2-fe82-4a03-bb56-7051ad99569e",
        "output_variables": [
            "--CAT",
            "--SCAT"
        ],
        "reference": [
            {
                "Origin": "SDTM and SDTMIG Conformance Rules",
                "Rule Identifier": {
                    "Id": "CG0429",
                    "Version": "1"
                },
                "Version": "2.0"
            }
        ],
        "rule_type": "Value Presence",
        "sensitivity": "Record",
        "severity": "error",
        "standards": [
            {
                "Name": "SDTMIG",
                "Version": "3.4"
            }
        ]
    },
    {
        "_links": {
            "package": {
                "href": "/mdr/rules/sdtmig/3-4",
                "title": "sdtmig Conformance Rules v3-4",
                "type": "Conformance Rules Package"
            },
            "self": {
                "href": "/mdr/rules/sdtmig/3-4/rule/400c2f10-66ce-42d4-a53f-8fea3d53ee60",
                "title": "CDISC.SDTMIG.CG0372",
                "type": "Conformance Rule"
            },
            "standards": [
                {
                    "href": "/mdr/sdtmig/3-4",
                    "title": "Study Data Tabulation Model Implementation Guide: Human Clinical Trials",
                    "type": "Implementation Guide"
                }
            ]
        },
        "actions": [
            {
                "name": "generate_dataset_error_objects",
                "params": {
                    "message": "--TESTCD > 8 chars or contains more than only letters, numbers, underscores, or starts with a number."
                }
            }
        ],
        "authority": {
            "Organization": "CDISC"
        },
        "classes": {
            "Include": [
                "Findings",
                "Trial Design"
            ]
        },
        "conditions": {
            "any": [
                {
                    "name": "get_dataset",
                    "operator": "not_matches_regex",
                    "value": {
                        "comparator": "^[A-Z_][A-Z0-9_]{0,7}$",
                        "target": "--TESTCD"
                    }
                },
                {
                    "name": "get_dataset",
                    "operator": "not_matches_regex",
                    "value": {
                        "comparator": "^[A-Z_][A-Z0-9_]{0,7}$",
                        "target": "IETESTCD"
                    }
                }
            ]
        },
        "core_id": "CDISC.SDTMIG.CG0372",
        "description": "Raise an error when --TESTCD > 8 chars or contains more than only letters, numbers and underscores, or starts with a number.",
        "domains": {
            "Include": [
                "All"
            ]
        },
        "id": "400c2f10-66ce-42d4-a53f-8fea3d53ee60",
        "output_variables": [
            "--TESTCD",
            "IETESTCD"
        ],
        "reference": [
            {
                "Origin": "SDTM and SDTMIG Conformance Rules",
                "Rule Identifier": {
                    "Id": "CG0372",
                    "Version": "1"
                },
                "Version": "2.0"
            }
        ],
        "rule_type": "Value Presence",
        "sensitivity": "Record",
        "severity": "error",
        "standards": [
            {
                "Name": "SDTMIG",
                "Version": "3.4"
            }
        ]
    },
    {
        "_links": {
            "package": {
                "href": "/mdr/rules/sdtmig/3-4",
                "title": "sdtmig Conformance Rules v3-4",
                "type": "Conformance Rules Package"
            },
            "self": {
                "href": "/mdr/rules/sdtmig/3-4/rule/40da51c0-b9fc-461c-9fb9-c20ed224bc4c",
                "title": "CDISC.SDTMIG.CG0338",
                "type": "Conformance Rule"
            },
            "standards": [
                {
                    "href": "/mdr/sdtmig/3-4",
                    "title": "Study Data Tabulation Model Implementation Guide: Human Clinical Trials",
                    "type": "Implementation Guide"
                }
            ]
        },
        "actions": [
            {
                "name": "generate_dataset_error_objects",
                "params": {
                    "message": "--SCAT is equal to --DECOD."
                }
            }
        ],
        "authority": {
            "Organization": "CDISC"
        },
        "classes": {
            "Include": [
                "Events"
            ]
        },
        "conditions": {
            "all": [
                {
                    "name": "get_dataset",
                    "operator": "equal_to_case_insensitive",
                    "value": {
                        "comparator": "--DECOD",
                        "target": "--SCAT"
                    }
                }
            ]
        },
        "core_id": "CDISC.SDTMIG.CG0338",
        "description": "Raise an error when --SCAT = --DECOD.",
        "domains": {
            "Include": [
                "All"
            ]
        },
        "id": "40da51c0-b9fc-461c-9fb9-c20ed224bc4c",
        "output_variables": [
            "--DECOD",
            "--SCAT"
        ],
        "reference": [
            {
                "Origin": "SDTM and SDTMIG Conformance Rules",
                "Rule Identifier": {
                    "Id": "CG0338",
                    "Version": "1"
                },
                "Version": "2.0"
            }
        ],
        "rule_type": "Uniqueness",
        "sensitivity": "Record",
        "severity": "error",
        "standards": [
            {
                "Name": "SDTMIG",
                "Version": "3.4"
            }
        ]
    },
    {
        "_links": {
            "package": {
                "href": "/mdr/rules/sdtmig/3-4",
                "title": "sdtmig Conformance Rules v3-4",
                "type": "Conformance Rules Package"
            },
            "self": {
                "href": "/mdr/rules/sdtmig/3-4/rule/4256dbab-4ecc-4888-b3d1-25dd00e3ba8a",
                "title": "CDISC.SDTMIG.CG0206",
                "type": "Conformance Rule"
            },
            "standards": [
                {
                    "href": "/mdr/sdtmig/3-4",
                    "title": "Study Data Tabulation Model Implementation Guide: Human Clinical Trials",
                    "type": "Implementation Guide"
                }
            ]
        },
        "actions": [
            {
                "name": "generate_dataset_error_objects",
                "params": {
                    "message": "TAETORD should be null when ETCD = 'UNPLAN'."
                }
            }
        ],
        "authority": {
            "Organization": "CDISC"
        },
        "classes": {
            "Include": [
                "Special-Purpose"
            ]
        },
        "conditions": {
            "all": [
                {
                    "name": "get_dataset",
                    "operator": "equal_to",
                    "value": {
                        "comparator": "UNPLAN",
                        "target": "ETCD"
                    }
                },
                {
                    "name": "get_dataset",
                    "operator": "non_empty",
                    "value": {
                        "target": "TAETORD"
                    }
                }
            ]
        },
        "core_id": "CDISC.SDTMIG.CG0206",
        "description": "Raise an error when ETCD=\"UNPLAN\" and TAETORD is not null.",
        "domains": {
            "Include": [
                "SE"
            ]
        },
        "id": "4256dbab-4ecc-4888-b3d1-25dd00e3ba8a",
        "output_variables": [
            "ETCD",
            "TAETORD"
        ],
        "reference": [
            {
                "Origin": "SDTM and SDTMIG Conformance Rules",
                "Rule Identifier": {
                    "Id": "CG0206",
                    "Version": "1"
                },
                "Version": "2.0"
            }
        ],
        "rule_type": "Value Presence",
        "sensitivity": "Record",
        "severity": "error",
        "standards": [
            {
                "Name": "SDTMIG",
                "Version": "3.4"
            }
        ]
    },
    {
        "_links": {
            "package": {
                "href": "/mdr/rules/sdtmig/3-4",
                "title": "sdtmig Conformance Rules v3-4",
                "type": "Conformance Rules Package"
            },
            "self": {
                "href": "/mdr/rules/sdtmig/3-4/rule/43341734-4a1d-48a8-bcdd-fe628f276ef8",
                "title": "CDISC.SDTMIG.CG0641",
                "type": "Conformance Rule"
            },
            "standards": [
                {
                    "href": "/mdr/sdtmig/3-4",
                    "title": "Study Data Tabulation Model Implementation Guide: Human Clinical Trials",
                    "type": "Implementation Guide"
                }
            ]
        },
        "actions": [
            {
                "name": "generate_dataset_error_objects",
                "params": {
                    "message": "AGETXT is present."
                }
            }
        ],
        "authority": {
            "Organization": "CDISC"
        },
        "classes": {
            "Include": [
                "Special-Purpose"
            ]
        },
        "conditions": {
            "all": [
                {
                    "name": "get_dataset",
                    "operator": "exists",
                    "value": {
                        "target": "AGETXT"
                    }
                }
            ]
        },
        "core_id": "CDISC.SDTMIG.CG0641",
        "description": "Raise an error when AGETXT is present.",
        "domains": {
            "Include": [
                "DM"
            ]
        },
        "id": "43341734-4a1d-48a8-bcdd-fe628f276ef8",
        "output_variables": [],
        "reference": [
            {
                "Origin": "SDTM and SDTMIG Conformance Rules",
                "Rule Identifier": {
                    "Id": "CG0641",
                    "Version": "1"
                },
                "Version": "2.0"
            }
        ],
        "rule_type": "Variable Presence",
        "sensitivity": "Dataset",
        "severity": "error",
        "standards": [
            {
                "Name": "SDTMIG",
                "Version": "3.4"
            }
        ]
    },
    {
        "_links": {
            "package": {
                "href": "/mdr/rules/sdtmig/3-4",
                "title": "sdtmig Conformance Rules v3-4",
                "type": "Conformance Rules Package"
            },
            "self": {
                "href": "/mdr/rules/sdtmig/3-4/rule/43e71764-280d-4ccb-91cb-63278db6bc3b",
                "title": "CDISC.SDTMIG.CG0362",
                "type": "Conformance Rule"
            },
            "standards": [
                {
                    "href": "/mdr/sdtmig/3-4",
                    "title": "Study Data Tabulation Model Implementation Guide: Human Clinical Trials",
                    "type": "Implementation Guide"
                }
            ]
        },
        "actions": [
            {
                "name": "generate_dataset_error_objects",
                "params": {
                    "message": "USUBJID must be null when POOLID is populated"
                }
            }
        ],
        "authority": {
            "Organization": "CDISC"
        },
        "classes": {
            "Include": [
                "Special-Purpose"
            ]
        },
        "conditions": {
            "all": [
                {
                    "name": "get_dataset",
                    "operator": "non_empty",
                    "value": {
                        "target": "POOLID"
                    }
                },
                {
                    "name": "get_dataset",
                    "operator": "non_empty",
                    "value": {
                        "target": "USUBJID"
                    }
                }
            ]
        },
        "core_id": "CDISC.SDTMIG.CG0362",
        "description": "Verify that when POOLID is populated, USUBJID is not populated",
        "domains": {
            "Include": [
                "RELSUB"
            ]
        },
        "id": "43e71764-280d-4ccb-91cb-63278db6bc3b",
        "output_variables": [
            "POOLID",
            "USUBJID"
        ],
        "reference": [
            {
                "Origin": "SDTM and SDTMIG Conformance Rules",
                "Rule Identifier": {
                    "Id": "CG0362",
                    "Version": "1"
                },
                "Version": "2.0"
            }
        ],
        "rule_type": "Value Presence",
        "sensitivity": "Variable",
        "severity": "error",
        "standards": [
            {
                "Name": "SDTMIG",
                "Version": "3.4"
            }
        ]
    },
    {
        "_links": {
            "package": {
                "href": "/mdr/rules/sdtmig/3-4",
                "title": "sdtmig Conformance Rules v3-4",
                "type": "Conformance Rules Package"
            },
            "self": {
                "href": "/mdr/rules/sdtmig/3-4/rule/4566d1eb-9b0f-4497-8ccd-705685ab87ae",
                "title": "CDISC.SDTMIG.CG0628",
                "type": "Conformance Rule"
            },
            "standards": [
                {
                    "href": "/mdr/sdtmig/3-4",
                    "title": "Study Data Tabulation Model Implementation Guide: Human Clinical Trials",
                    "type": "Implementation Guide"
                }
            ]
        },
        "actions": [
            {
                "name": "generate_dataset_error_objects",
                "params": {
                    "message": "--EXCLFL is present."
                }
            }
        ],
        "authority": {
            "Organization": "CDISC"
        },
        "classes": {
            "Include": [
                "Findings"
            ]
        },
        "conditions": {
            "all": [
                {
                    "name": "get_dataset",
                    "operator": "exists",
                    "value": {
                        "target": "--EXCLFL"
                    }
                }
            ]
        },
        "core_id": "CDISC.SDTMIG.CG0628",
        "description": "Raise an error when --EXCLFL is present.",
        "domains": {
            "Include": [
                "All"
            ]
        },
        "id": "4566d1eb-9b0f-4497-8ccd-705685ab87ae",
        "output_variables": [],
        "reference": [
            {
                "Origin": "SDTM and SDTMIG Conformance Rules",
                "Rule Identifier": {
                    "Id": "CG0628",
                    "Version": "1"
                },
                "Version": "2.0"
            }
        ],
        "rule_type": "Variable Presence",
        "sensitivity": "Dataset",
        "severity": "error",
        "standards": [
            {
                "Name": "SDTMIG",
                "Version": "3.4"
            }
        ]
    },
    {
        "_links": {
            "package": {
                "href": "/mdr/rules/sdtmig/3-4",
                "title": "sdtmig Conformance Rules v3-4",
                "type": "Conformance Rules Package"
            },
            "self": {
                "href": "/mdr/rules/sdtmig/3-4/rule/468d44f7-8dbe-40ba-a4c1-c8e94fb900d9",
                "title": "CDISC.SDTMIG.CG0223",
                "type": "Conformance Rule"
            },
            "standards": [
                {
                    "href": "/mdr/sdtmig/3-4",
                    "title": "Study Data Tabulation Model Implementation Guide: Human Clinical Trials",
                    "type": "Implementation Guide"
                }
            ]
        },
        "actions": [
            {
                "name": "generate_dataset_error_objects",
                "params": {
                    "message": "--ENDY is not null when either --ENDTC or DM.RFSTDTC do not contain complete values in their date portion"
                }
            }
        ],
        "authority": {
            "Organization": "CDISC"
        },
        "classes": {
            "Include": [
                "All"
            ]
        },
        "conditions": {
            "any": [
                {
                    "all": [
                        {
                            "name": "get_dataset",
                            "operator": "is_incomplete_date",
                            "value": {
                                "target": "--ENDTC"
                            }
                        },
                        {
                            "name": "get_dataset",
                            "operator": "non_empty",
                            "value": {
                                "target": "--ENDY"
                            }
                        }
                    ]
                },
                {
                    "all": [
                        {
                            "name": "get_dataset",
                            "operator": "is_incomplete_date",
                            "value": {
                                "target": "RFSTDTC"
                            }
                        },
                        {
                            "name": "get_dataset",
                            "operator": "non_empty",
                            "value": {
                                "target": "--ENDY"
                            }
                        }
                    ]
                }
            ]
        },
        "core_id": "CDISC.SDTMIG.CG0223",
        "datasets": [
            {
                "domain_name": "DM",
                "match_key": [
                    "USUBJID"
                ]
            }
        ],
        "description": "Trigger error if --ENDTC or DM.RFSTDTC does not contain complete values in their date portion, and --ENDY is not null.",
        "domains": {
            "Exclude": [
                "DM"
            ]
        },
        "id": "468d44f7-8dbe-40ba-a4c1-c8e94fb900d9",
        "output_variables": [
            "--ENDTC",
            "RFSTDTC",
            "--ENDY"
        ],
        "reference": [
            {
                "Origin": "SDTM and SDTMIG Conformance Rules",
                "Rule Identifier": {
                    "Id": "CG0223",
                    "Version": "1"
                },
                "Version": "2.0"
            }
        ],
        "rule_type": "Value Presence",
        "sensitivity": "Record",
        "severity": "warning",
        "standards": [
            {
                "Name": "SDTMIG",
                "Version": "3.4"
            }
        ]
    },
    {
        "_links": {
            "package": {
                "href": "/mdr/rules/sdtmig/3-4",
                "title": "sdtmig Conformance Rules v3-4",
                "type": "Conformance Rules Package"
            },
            "self": {
                "href": "/mdr/rules/sdtmig/3-4/rule/48b0a1c2-33c0-42fa-9886-a74c7905d092",
                "title": "CDISC.SDTMIG.CG0391",
                "type": "Conformance Rule"
            },
            "standards": [
                {
                    "href": "/mdr/sdtmig/3-4",
                    "title": "Study Data Tabulation Model Implementation Guide: Human Clinical Trials",
                    "type": "Implementation Guide"
                }
            ]
        },
        "actions": [
            {
                "name": "generate_dataset_error_objects",
                "params": {
                    "message": "AESDTH is completed, but not equal to \"N\" or \"Y\""
                }
            }
        ],
        "authority": {
            "Organization": "CDISC"
        },
        "classes": {
            "Include": [
                "Events"
            ]
        },
        "conditions": {
            "all": [
                {
                    "name": "get_dataset",
                    "operator": "non_empty",
                    "value": {
                        "target": "AESDTH"
                    }
                },
                {
                    "name": "get_dataset",
                    "operator": "is_not_contained_by",
                    "value": {
                        "comparator": [
                            "Y",
                            "N"
                        ],
                        "target": "AESDTH"
                    }
                }
            ]
        },
        "core_id": "CDISC.SDTMIG.CG0391",
        "description": "Raise an error when AESDTH is completed and value is not 'Y' or 'N'",
        "domains": {
            "Include": [
                "AE"
            ]
        },
        "id": "48b0a1c2-33c0-42fa-9886-a74c7905d092",
        "output_variables": [
            "AESDTH"
        ],
        "reference": [
            {
                "Origin": "SDTM and SDTMIG Conformance Rules",
                "Rule Identifier": {
                    "Id": "CG0391",
                    "Version": "1"
                },
                "Version": "2.0"
            }
        ],
        "rule_type": "Range & Limit",
        "sensitivity": "Record",
        "severity": "error",
        "standards": [
            {
                "Name": "SDTMIG",
                "Version": "3.4"
            }
        ]
    },
    {
        "_links": {
            "package": {
                "href": "/mdr/rules/sdtmig/3-4",
                "title": "sdtmig Conformance Rules v3-4",
                "type": "Conformance Rules Package"
            },
            "self": {
                "href": "/mdr/rules/sdtmig/3-4/rule/494e8408-74d9-41cd-b0be-ad645a6c5e86",
                "title": "CDISC.SDTMIG.CG0108",
                "type": "Conformance Rule"
            },
            "standards": [
                {
                    "href": "/mdr/sdtmig/3-4",
                    "title": "Study Data Tabulation Model Implementation Guide: Human Clinical Trials",
                    "type": "Implementation Guide"
                }
            ]
        },
        "actions": [
            {
                "name": "generate_dataset_error_objects",
                "params": {
                    "message": "Value for --VAMTU is populated, when --TRTV is NULL."
                }
            }
        ],
        "authority": {
            "Organization": "CDISC"
        },
        "classes": {
            "Include": [
                "Interventions"
            ]
        },
        "conditions": {
            "all": [
                {
                    "name": "get_dataset",
                    "operator": "empty",
                    "value": {
                        "target": "--TRTV"
                    }
                },
                {
                    "name": "get_dataset",
                    "operator": "non_empty",
                    "value": {
                        "target": "--VAMTU"
                    }
                }
            ]
        },
        "core_id": "CDISC.SDTMIG.CG0108",
        "description": "Raise an error when --TRTV is null, --VAMTU is not null",
        "domains": {
            "Include": [
                "All"
            ]
        },
        "id": "494e8408-74d9-41cd-b0be-ad645a6c5e86",
        "output_variables": [
            "--TRTV",
            "--VAMTU"
        ],
        "reference": [
            {
                "Origin": "SDTM and SDTMIG Conformance Rules",
                "Rule Identifier": {
                    "Id": "CG0108",
                    "Version": "2"
                },
                "Version": "2.0"
            }
        ],
        "rule_type": "Value Presence",
        "sensitivity": "Record",
        "severity": "error",
        "standards": [
            {
                "Name": "SDTMIG",
                "Version": "3.4"
            }
        ]
    },
    {
        "_links": {
            "package": {
                "href": "/mdr/rules/sdtmig/3-4",
                "title": "sdtmig Conformance Rules v3-4",
                "type": "Conformance Rules Package"
            },
            "self": {
                "href": "/mdr/rules/sdtmig/3-4/rule/4a2a24d5-00bb-40a9-a3c5-5d818e4f473c",
                "title": "CDISC.SDTMIG.CG0057",
                "type": "Conformance Rule"
            },
            "standards": [
                {
                    "href": "/mdr/sdtmig/3-4",
                    "title": "Study Data Tabulation Model Implementation Guide: Human Clinical Trials",
                    "type": "Implementation Guide"
                }
            ]
        },
        "actions": [
            {
                "name": "generate_dataset_error_objects",
                "params": {
                    "message": "--ENTPT exists in a dataset, but --ENRTPT does not exist."
                }
            }
        ],
        "authority": {
            "Organization": "CDISC"
        },
        "classes": {
            "Include": [
                "All"
            ]
        },
        "conditions": {
            "all": [
                {
                    "name": "get_dataset",
                    "operator": "exists",
                    "value": {
                        "target": "--ENTPT"
                    }
                },
                {
                    "name": "get_dataset",
                    "operator": "not_exists",
                    "value": {
                        "target": "--ENRTPT"
                    }
                }
            ]
        },
        "core_id": "CDISC.SDTMIG.CG0057",
        "description": "Raise an error when --ENTPT exists in a dataset and --ENRTPT does not exist.",
        "domains": {
            "Include": [
                "All"
            ]
        },
        "id": "4a2a24d5-00bb-40a9-a3c5-5d818e4f473c",
        "output_variables": [
            "--ENTPT"
        ],
        "reference": [
            {
                "Origin": "SDTM and SDTMIG Conformance Rules",
                "Rule Identifier": {
                    "Id": "CG0057",
                    "Version": "1"
                },
                "Version": "2.0"
            }
        ],
        "rule_type": "Variable Presence",
        "sensitivity": "Dataset",
        "severity": "error",
        "standards": [
            {
                "Name": "SDTMIG",
                "Version": "3.4"
            }
        ]
    },
    {
        "_links": {
            "package": {
                "href": "/mdr/rules/sdtmig/3-4",
                "title": "sdtmig Conformance Rules v3-4",
                "type": "Conformance Rules Package"
            },
            "self": {
                "href": "/mdr/rules/sdtmig/3-4/rule/4da8ea6a-6139-4dfe-8605-e055068f1355",
                "title": "CDISC.SDTMIG.CG0364",
                "type": "Conformance Rule"
            },
            "standards": [
                {
                    "href": "/mdr/sdtmig/3-4",
                    "title": "Study Data Tabulation Model Implementation Guide: Human Clinical Trials",
                    "type": "Implementation Guide"
                }
            ]
        },
        "actions": [
            {
                "name": "generate_dataset_error_objects",
                "params": {
                    "message": "When RSUBJID is populated, RUSBJID cannot equal POOLID"
                }
            }
        ],
        "authority": {
            "Organization": "CDISC"
        },
        "classes": {
            "Include": [
                "Relationship"
            ]
        },
        "conditions": {
            "all": [
                {
                    "name": "get_dataset",
                    "operator": "non_empty",
                    "value": {
                        "target": "RSUBJID"
                    }
                },
                {
                    "name": "get_dataset",
                    "operator": "equal_to",
                    "value": {
                        "comparator": "POOLID",
                        "target": "RSUBJID"
                    }
                }
            ]
        },
        "core_id": "CDISC.SDTMIG.CG0364",
        "description": "Verify when RSUBJID is populated it does not equal POOLID",
        "domains": {
            "Include": [
                "RELSUB"
            ]
        },
        "id": "4da8ea6a-6139-4dfe-8605-e055068f1355",
        "output_variables": [
            "RSUBJID",
            "POOLID"
        ],
        "reference": [
            {
                "Origin": "SDTM and SDTMIG Conformance Rules",
                "Rule Identifier": {
                    "Id": "CG0364",
                    "Version": "1"
                },
                "Version": "2.0"
            }
        ],
        "rule_type": "Value Presence",
        "sensitivity": "Value",
        "severity": "error",
        "standards": [
            {
                "Name": "SDTMIG",
                "Version": "3.4"
            }
        ]
    },
    {
        "_links": {
            "package": {
                "href": "/mdr/rules/sdtmig/3-4",
                "title": "sdtmig Conformance Rules v3-4",
                "type": "Conformance Rules Package"
            },
            "self": {
                "href": "/mdr/rules/sdtmig/3-4/rule/4db5941d-c515-48b2-b405-b3fc8d5d546d",
                "title": "CDISC.SDTMIG.CG0566",
                "type": "Conformance Rule"
            },
            "standards": [
                {
                    "href": "/mdr/sdtmig/3-4",
                    "title": "Study Data Tabulation Model Implementation Guide: Human Clinical Trials",
                    "type": "Implementation Guide"
                }
            ]
        },
        "actions": [
            {
                "name": "generate_dataset_error_objects",
                "params": {
                    "message": "--CONCU is present in a dataset other than MS."
                }
            }
        ],
        "authority": {
            "Organization": "CDISC"
        },
        "classes": {
            "Include": [
                "Findings"
            ]
        },
        "conditions": {
            "all": [
                {
                    "name": "get_dataset",
                    "operator": "exists",
                    "value": {
                        "target": "--CONCU"
                    }
                }
            ]
        },
        "core_id": "CDISC.SDTMIG.CG0566",
        "description": "Raise an error when --CONCU is present in a dataset other than MS.",
        "domains": {
            "Exclude": [
                "MS"
            ]
        },
        "id": "4db5941d-c515-48b2-b405-b3fc8d5d546d",
        "output_variables": [
            "--CONCU"
        ],
        "reference": [
            {
                "Origin": "SDTM and SDTMIG Conformance Rules",
                "Rule Identifier": {
                    "Id": "CG0566",
                    "Version": "1"
                },
                "Version": "2.0"
            }
        ],
        "rule_type": "Variable Presence",
        "sensitivity": "Dataset",
        "severity": "error",
        "standards": [
            {
                "Name": "SDTMIG",
                "Version": "3.4"
            }
        ]
    },
    {
        "_links": {
            "package": {
                "href": "/mdr/rules/sdtmig/3-4",
                "title": "sdtmig Conformance Rules v3-4",
                "type": "Conformance Rules Package"
            },
            "self": {
                "href": "/mdr/rules/sdtmig/3-4/rule/4ef5ff9e-72d0-4864-a343-c96576b4d838",
                "title": "CDISC.SDTMIG.CG0065",
                "type": "Conformance Rule"
            },
            "standards": [
                {
                    "href": "/mdr/sdtmig/3-4",
                    "title": "Study Data Tabulation Model Implementation Guide: Human Clinical Trials",
                    "type": "Implementation Guide"
                }
            ]
        },
        "actions": [
            {
                "name": "generate_dataset_error_objects",
                "params": {
                    "message": "DSDECOD is not equal to \"COMPLETED\" when DSTERM equals \"COMPLETED\"."
                }
            }
        ],
        "authority": {
            "Organization": "CDISC"
        },
        "classes": {
            "Include": [
                "Events"
            ]
        },
        "conditions": {
            "all": [
                {
                    "name": "get_dataset",
                    "operator": "equal_to",
                    "value": {
                        "comparator": "COMPLETED",
                        "target": "DSTERM"
                    }
                },
                {
                    "name": "get_dataset",
                    "operator": "not_equal_to",
                    "value": {
                        "comparator": "COMPLETED",
                        "target": "DSDECOD"
                    }
                }
            ]
        },
        "core_id": "CDISC.SDTMIG.CG0065",
        "description": "Raise an error when DSTERM = \"COMPLETED\" and DSDECOD not equal to \"COMPLETED\".",
        "domains": {
            "Include": [
                "DS"
            ]
        },
        "id": "4ef5ff9e-72d0-4864-a343-c96576b4d838",
        "output_variables": [
            "DSTERM",
            "DSDECOD"
        ],
        "reference": [
            {
                "Origin": "SDTM and SDTMIG Conformance Rules",
                "Rule Identifier": {
                    "Id": "CG0065",
                    "Version": "1"
                },
                "Version": "2.0"
            }
        ],
        "rule_type": "Value Presence",
        "sensitivity": "Record",
        "severity": "error",
        "standards": [
            {
                "Name": "SDTMIG",
                "Version": "3.4"
            }
        ]
    },
    {
        "_links": {
            "package": {
                "href": "/mdr/rules/sdtmig/3-4",
                "title": "sdtmig Conformance Rules v3-4",
                "type": "Conformance Rules Package"
            },
            "self": {
                "href": "/mdr/rules/sdtmig/3-4/rule/4fea5cfe-5721-4d9e-9baa-b88ad14cf77b",
                "title": "CDISC.SDTMIG.CG0266",
                "type": "Conformance Rule"
            },
            "standards": [
                {
                    "href": "/mdr/sdtmig/3-4",
                    "title": "Study Data Tabulation Model Implementation Guide: Human Clinical Trials",
                    "type": "Implementation Guide"
                }
            ]
        },
        "actions": [
            {
                "name": "generate_dataset_error_objects",
                "params": {
                    "message": "TSVCDREF is null when TSVCDVER is populated"
                }
            }
        ],
        "authority": {
            "Organization": "CDISC"
        },
        "classes": {
            "Include": [
                "Trial Design"
            ]
        },
        "conditions": {
            "all": [
                {
                    "name": "get_dataset",
                    "operator": "non_empty",
                    "value": {
                        "target": "TSVCDVER"
                    }
                },
                {
                    "name": "get_dataset",
                    "operator": "empty",
                    "value": {
                        "target": "TSVCDREF"
                    }
                }
            ]
        },
        "core_id": "CDISC.SDTMIG.CG0266",
        "description": "Trigger error when TSVCDVER is populated and TSVCDREF is null",
        "domains": {
            "Include": [
                "TS"
            ]
        },
        "id": "4fea5cfe-5721-4d9e-9baa-b88ad14cf77b",
        "output_variables": [
            "TSVCDVER",
            "TSVCDREF"
        ],
        "reference": [
            {
                "Origin": "SDTM and SDTMIG Conformance Rules",
                "Rule Identifier": {
                    "Id": "CG0266",
                    "Version": "1"
                },
                "Version": "2.0"
            }
        ],
        "rule_type": "Value Presence",
        "sensitivity": "Record",
        "severity": "warning",
        "standards": [
            {
                "Name": "SDTMIG",
                "Version": "3.4"
            }
        ]
    },
    {
        "_links": {
            "package": {
                "href": "/mdr/rules/sdtmig/3-4",
                "title": "sdtmig Conformance Rules v3-4",
                "type": "Conformance Rules Package"
            },
            "self": {
                "href": "/mdr/rules/sdtmig/3-4/rule/509c4530-b3a9-4a2c-9f8c-b2765ca315de",
                "title": "CDISC.SDTMIG.CG0513",
                "type": "Conformance Rule"
            },
            "standards": [
                {
                    "href": "/mdr/sdtmig/3-4",
                    "title": "Study Data Tabulation Model Implementation Guide: Human Clinical Trials",
                    "type": "Implementation Guide"
                }
            ]
        },
        "actions": [
            {
                "name": "generate_dataset_error_objects",
                "params": {
                    "message": "ACTARMCD is empty, but ARMNRS is not completed."
                }
            }
        ],
        "authority": {
            "Organization": "CDISC"
        },
        "classes": {
            "Include": [
                "Special-Purpose"
            ]
        },
        "conditions": {
            "all": [
                {
                    "name": "get_dataset",
                    "operator": "empty",
                    "value": {
                        "target": "ACTARMCD"
                    }
                },
                {
                    "name": "get_dataset",
                    "operator": "empty",
                    "value": {
                        "target": "ARMNRS"
                    }
                }
            ]
        },
        "core_id": "CDISC.SDTMIG.CG0513",
        "description": "Raise an error when ACTARMCD is empty and ARMNRS is not completed.",
        "domains": {
            "Include": [
                "DM"
            ]
        },
        "id": "509c4530-b3a9-4a2c-9f8c-b2765ca315de",
        "output_variables": [
            "ACTARMCD",
            "ARMNRS"
        ],
        "reference": [
            {
                "Origin": "SDTM and SDTMIG Conformance Rules",
                "Rule Identifier": {
                    "Id": "CG0513",
                    "Version": "1"
                },
                "Version": "2.0"
            }
        ],
        "rule_type": "Value Presence",
        "sensitivity": "Record",
        "severity": "error",
        "standards": [
            {
                "Name": "SDTMIG",
                "Version": "3.4"
            }
        ]
    },
    {
        "_links": {
            "package": {
                "href": "/mdr/rules/sdtmig/3-4",
                "title": "sdtmig Conformance Rules v3-4",
                "type": "Conformance Rules Package"
            },
            "self": {
                "href": "/mdr/rules/sdtmig/3-4/rule/53749c1c-3f13-4d95-b205-fb4aedde5101",
                "title": "CDISC.SDTMIG.CG0638",
                "type": "Conformance Rule"
            },
            "standards": [
                {
                    "href": "/mdr/sdtmig/3-4",
                    "title": "Study Data Tabulation Model Implementation Guide: Human Clinical Trials",
                    "type": "Implementation Guide"
                }
            ]
        },
        "actions": [
            {
                "name": "generate_dataset_error_objects",
                "params": {
                    "message": "--RPSTDY is present."
                }
            }
        ],
        "authority": {
            "Organization": "CDISC"
        },
        "classes": {
            "Include": [
                "All"
            ]
        },
        "conditions": {
            "all": [
                {
                    "name": "get_dataset",
                    "operator": "exists",
                    "value": {
                        "target": "--RPSTDY"
                    }
                }
            ]
        },
        "core_id": "CDISC.SDTMIG.CG0638",
        "description": "Raise an error when --RPSTDY is present.",
        "domains": {
            "Include": [
                "All"
            ]
        },
        "id": "53749c1c-3f13-4d95-b205-fb4aedde5101",
        "output_variables": [],
        "reference": [
            {
                "Origin": "SDTM and SDTMIG Conformance Rules",
                "Rule Identifier": {
                    "Id": "CG0638",
                    "Version": "1"
                },
                "Version": "2.0"
            }
        ],
        "rule_type": "Variable Presence",
        "sensitivity": "Dataset",
        "severity": "error",
        "standards": [
            {
                "Name": "SDTMIG",
                "Version": "3.4"
            }
        ]
    },
    {
        "_links": {
            "package": {
                "href": "/mdr/rules/sdtmig/3-4",
                "title": "sdtmig Conformance Rules v3-4",
                "type": "Conformance Rules Package"
            },
            "self": {
                "href": "/mdr/rules/sdtmig/3-4/rule/53d647f4-8e82-4577-9a02-53f8979d13cf",
                "title": "CDISC.SDTMIG.CG0627",
                "type": "Conformance Rule"
            },
            "standards": [
                {
                    "href": "/mdr/sdtmig/3-4",
                    "title": "Study Data Tabulation Model Implementation Guide: Human Clinical Trials",
                    "type": "Implementation Guide"
                }
            ]
        },
        "actions": [
            {
                "name": "generate_dataset_error_objects",
                "params": {
                    "message": "--DTHREL is present."
                }
            }
        ],
        "authority": {
            "Organization": "CDISC"
        },
        "classes": {
            "Include": [
                "Findings"
            ]
        },
        "conditions": {
            "all": [
                {
                    "name": "get_dataset",
                    "operator": "exists",
                    "value": {
                        "target": "--DTHREL"
                    }
                }
            ]
        },
        "core_id": "CDISC.SDTMIG.CG0627",
        "description": "Raise an error when --DTHREL is present.",
        "domains": {
            "Include": [
                "All"
            ]
        },
        "id": "53d647f4-8e82-4577-9a02-53f8979d13cf",
        "output_variables": [],
        "reference": [
            {
                "Origin": "SDTM and SDTMIG Conformance Rules",
                "Rule Identifier": {
                    "Id": "CG0627",
                    "Version": "1"
                },
                "Version": "2.0"
            }
        ],
        "rule_type": "Variable Presence",
        "sensitivity": "Dataset",
        "severity": "error",
        "standards": [
            {
                "Name": "SDTMIG",
                "Version": "3.4"
            }
        ]
    },
    {
        "_links": {
            "package": {
                "href": "/mdr/rules/sdtmig/3-4",
                "title": "sdtmig Conformance Rules v3-4",
                "type": "Conformance Rules Package"
            },
            "self": {
                "href": "/mdr/rules/sdtmig/3-4/rule/54b0fac0-9c4b-47bd-9a0f-84c15a1bdeeb",
                "title": "CDISC.SDTMIG.CG0533",
                "type": "Conformance Rule"
            },
            "standards": [
                {
                    "href": "/mdr/sdtmig/3-4",
                    "title": "Study Data Tabulation Model Implementation Guide: Human Clinical Trials",
                    "type": "Implementation Guide"
                }
            ]
        },
        "actions": [
            {
                "name": "generate_dataset_error_objects",
                "params": {
                    "message": "RPATHCD is present."
                }
            }
        ],
        "authority": {
            "Organization": "CDISC"
        },
        "classes": {
            "Include": [
                "Special-Purpose"
            ]
        },
        "conditions": {
            "all": [
                {
                    "name": "get_dataset",
                    "operator": "exists",
                    "value": {
                        "target": "RPATHCD"
                    }
                }
            ]
        },
        "core_id": "CDISC.SDTMIG.CG0533",
        "description": "Raise an error when RPATHCD is present.",
        "domains": {
            "Include": [
                "DM"
            ]
        },
        "id": "54b0fac0-9c4b-47bd-9a0f-84c15a1bdeeb",
        "output_variables": [
            "RPATHCD"
        ],
        "reference": [
            {
                "Origin": "SDTM and SDTMIG Conformance Rules",
                "Rule Identifier": {
                    "Id": "CG0533",
                    "Version": "1"
                },
                "Version": "2.0"
            }
        ],
        "rule_type": "Variable Presence",
        "sensitivity": "Dataset",
        "severity": "error",
        "standards": [
            {
                "Name": "SDTMIG",
                "Version": "3.4"
            }
        ]
    },
    {
        "_links": {
            "package": {
                "href": "/mdr/rules/sdtmig/3-4",
                "title": "sdtmig Conformance Rules v3-4",
                "type": "Conformance Rules Package"
            },
            "self": {
                "href": "/mdr/rules/sdtmig/3-4/rule/54ce26c6-1c7e-4bbf-ba68-c4aea2326b56",
                "title": "CDISC.SDTMIG.CG0509",
                "type": "Conformance Rule"
            },
            "standards": [
                {
                    "href": "/mdr/sdtmig/3-4",
                    "title": "Study Data Tabulation Model Implementation Guide: Human Clinical Trials",
                    "type": "Implementation Guide"
                }
            ]
        },
        "actions": [
            {
                "name": "generate_dataset_error_objects",
                "params": {
                    "message": "FETUSID is present."
                }
            }
        ],
        "authority": {
            "Organization": "CDISC"
        },
        "classes": {
            "Include": [
                "All"
            ]
        },
        "conditions": {
            "all": [
                {
                    "name": "get_dataset",
                    "operator": "exists",
                    "value": {
                        "target": "FETUSID"
                    }
                }
            ]
        },
        "core_id": "CDISC.SDTMIG.CG0509",
        "description": "FETUSID must not be present in SDTM domains.",
        "domains": {
            "Include": [
                "All"
            ]
        },
        "id": "54ce26c6-1c7e-4bbf-ba68-c4aea2326b56",
        "output_variables": [],
        "reference": [
            {
                "Origin": "SDTM and SDTMIG Conformance Rules",
                "Rule Identifier": {
                    "Id": "CG0509",
                    "Version": "1"
                },
                "Version": "2.0"
            },
            {
                "Origin": "SDTM and SDTMIG Conformance Rules",
                "Rule Identifier": {
                    "Id": "CG0630",
                    "Version": "1"
                },
                "Version": "2.0"
            }
        ],
        "rule_type": "Variable Presence",
        "sensitivity": "Dataset",
        "severity": "error",
        "standards": [
            {
                "Name": "SDTMIG",
                "Version": "3.4"
            }
        ]
    },
    {
        "_links": {
            "package": {
                "href": "/mdr/rules/sdtmig/3-4",
                "title": "sdtmig Conformance Rules v3-4",
                "type": "Conformance Rules Package"
            },
            "self": {
                "href": "/mdr/rules/sdtmig/3-4/rule/54d55056-72f9-4e35-85ec-42504817cd75",
                "title": "CDISC.SDTMIG.CG0302",
                "type": "Conformance Rule"
            },
            "standards": [
                {
                    "href": "/mdr/sdtmig/3-4",
                    "title": "Study Data Tabulation Model Implementation Guide: Human Clinical Trials",
                    "type": "Implementation Guide"
                }
            ]
        },
        "actions": [
            {
                "name": "generate_dataset_error_objects",
                "params": {
                    "message": "TRPORTOT is present."
                }
            }
        ],
        "authority": {
            "Organization": "CDISC"
        },
        "classes": {
            "Include": [
                "Findings"
            ]
        },
        "conditions": {
            "all": [
                {
                    "name": "get_dataset",
                    "operator": "exists",
                    "value": {
                        "target": "TRPORTOT"
                    }
                }
            ]
        },
        "core_id": "CDISC.SDTMIG.CG0302",
        "description": "Raise an error when TRPORTOT is present.",
        "domains": {
            "Include": [
                "TR"
            ]
        },
        "id": "54d55056-72f9-4e35-85ec-42504817cd75",
        "output_variables": [],
        "reference": [
            {
                "Origin": "SDTM and SDTMIG Conformance Rules",
                "Rule Identifier": {
                    "Id": "CG0302",
                    "Version": "1"
                },
                "Version": "2.0"
            }
        ],
        "rule_type": "Variable Presence",
        "sensitivity": "Dataset",
        "severity": "error",
        "standards": [
            {
                "Name": "SDTMIG",
                "Version": "3.4"
            }
        ]
    },
    {
        "_links": {
            "package": {
                "href": "/mdr/rules/sdtmig/3-4",
                "title": "sdtmig Conformance Rules v3-4",
                "type": "Conformance Rules Package"
            },
            "self": {
                "href": "/mdr/rules/sdtmig/3-4/rule/568cf2e7-e79d-4cf4-9ba9-29f18335c3ff",
                "title": "CDISC.SDTMIG.CG0009",
                "type": "Conformance Rule"
            },
            "standards": [
                {
                    "href": "/mdr/sdtmig/3-4",
                    "title": "Study Data Tabulation Model Implementation Guide: Human Clinical Trials",
                    "type": "Implementation Guide"
                }
            ]
        },
        "actions": [
            {
                "name": "generate_dataset_error_objects",
                "params": {
                    "message": "EPOCH is not in TA.EPOCH"
                }
            }
        ],
        "authority": {
            "Organization": "CDISC"
        },
        "classes": {
            "Include": [
                "All"
            ]
        },
        "conditions": {
            "all": [
                {
                    "name": "get_dataset",
                    "operator": "is_not_contained_by",
                    "value": {
                        "comparator": "$ta_epoch",
                        "target": "EPOCH"
                    }
                },
                {
                    "name": "get_dataset",
                    "operator": "non_empty",
                    "value": {
                        "target": "EPOCH"
                    }
                }
            ]
        },
        "core_id": "CDISC.SDTMIG.CG0009",
        "description": "Raise an error when EPOCH is not in TA.EPOCH",
        "domains": {
            "Include": [
                "All"
            ]
        },
        "id": "568cf2e7-e79d-4cf4-9ba9-29f18335c3ff",
        "operations": [
            {
                "domain": "TA",
                "id": "$ta_epoch",
                "name": "EPOCH",
                "operator": "distinct"
            }
        ],
        "output_variables": [
            "EPOCH"
        ],
        "reference": [
            {
                "Origin": "SDTM and SDTMIG Conformance Rules",
                "Rule Identifier": {
                    "Id": "CG0009",
                    "Version": "1"
                },
                "Version": "2.0"
            }
        ],
        "rule_type": "Range & Limit",
        "sensitivity": "Record",
        "severity": "error",
        "standards": [
            {
                "Name": "SDTMIG",
                "Version": "3.4"
            }
        ]
    },
    {
        "_links": {
            "package": {
                "href": "/mdr/rules/sdtmig/3-4",
                "title": "sdtmig Conformance Rules v3-4",
                "type": "Conformance Rules Package"
            },
            "self": {
                "href": "/mdr/rules/sdtmig/3-4/rule/589b21fa-a4e9-45b1-a791-a3adbb365f44",
                "title": "CDISC.SDTMIG.CG0164",
                "type": "Conformance Rule"
            },
            "standards": [
                {
                    "href": "/mdr/sdtmig/3-4",
                    "title": "Study Data Tabulation Model Implementation Guide: Human Clinical Trials",
                    "type": "Implementation Guide"
                }
            ]
        },
        "actions": [
            {
                "name": "generate_dataset_error_objects",
                "params": {
                    "message": "RDOMAIN has a missing value but IDVAR has a non-missing value"
                }
            }
        ],
        "authority": {
            "Organization": "CDISC"
        },
        "classes": {
            "Include": [
                "Special-Purpose"
            ]
        },
        "conditions": {
            "all": [
                {
                    "name": "get_dataset",
                    "operator": "non_empty",
                    "value": {
                        "target": "IDVAR"
                    }
                },
                {
                    "name": "get_dataset",
                    "operator": "empty",
                    "value": {
                        "target": "RDOMAIN"
                    }
                }
            ]
        },
        "core_id": "CDISC.SDTMIG.CG0164",
        "description": "Verify IDVAR is null when RDOMAIN is null",
        "domains": {
            "Include": [
                "CO"
            ]
        },
        "id": "589b21fa-a4e9-45b1-a791-a3adbb365f44",
        "output_variables": [
            "RDOMAIN",
            "IDVAR"
        ],
        "reference": [
            {
                "Origin": "SDTM and SDTMIG Conformance Rules",
                "Rule Identifier": {
                    "Id": "CG0164",
                    "Version": "1"
                },
                "Version": "2.0"
            }
        ],
        "rule_type": "Value Presence",
        "sensitivity": "Record",
        "severity": "error",
        "standards": [
            {
                "Name": "SDTMIG",
                "Version": "3.4"
            }
        ]
    },
    {
        "_links": {
            "package": {
                "href": "/mdr/rules/sdtmig/3-4",
                "title": "sdtmig Conformance Rules v3-4",
                "type": "Conformance Rules Package"
            },
            "self": {
                "href": "/mdr/rules/sdtmig/3-4/rule/5946b813-c208-4101-8c8a-47f86d4a2bf8",
                "title": "CDISC.SDTMIG.CG0179",
                "type": "Conformance Rule"
            },
            "standards": [
                {
                    "href": "/mdr/sdtmig/3-4",
                    "title": "Study Data Tabulation Model Implementation Guide: Human Clinical Trials",
                    "type": "Implementation Guide"
                }
            ]
        },
        "actions": [
            {
                "name": "generate_dataset_error_objects",
                "params": {
                    "message": "IETESTCD from IE domain does not exist in IETESTCD of TI domain."
                }
            }
        ],
        "authority": {
            "Organization": "CDISC"
        },
        "classes": {
            "Include": [
                "Findings"
            ]
        },
        "conditions": {
            "all": [
                {
                    "name": "get_dataset",
                    "operator": "is_not_contained_by",
                    "value": {
                        "comparator": "$ti_ietestcd",
                        "target": "IETESTCD"
                    }
                }
            ]
        },
        "core_id": "CDISC.SDTMIG.CG0179",
        "description": "Check if IETESTCD is present in TI.IETESTCD",
        "domains": {
            "Include": [
                "IE"
            ]
        },
        "id": "5946b813-c208-4101-8c8a-47f86d4a2bf8",
        "operations": [
            {
                "domain": "TI",
                "id": "$ti_ietestcd",
                "name": "IETESTCD",
                "operator": "distinct"
            }
        ],
        "output_variables": [
            "IETESTCD"
        ],
        "reference": [
            {
                "Origin": "SDTM and SDTMIG Conformance Rules",
                "Rule Identifier": {
                    "Id": "CG0179",
                    "Version": "1"
                },
                "Version": "2.0"
            }
        ],
        "rule_type": "Range & Limit",
        "sensitivity": "Record",
        "severity": "error",
        "standards": [
            {
                "Name": "SDTMIG",
                "Version": "3.4"
            }
        ]
    },
    {
        "_links": {
            "package": {
                "href": "/mdr/rules/sdtmig/3-4",
                "title": "sdtmig Conformance Rules v3-4",
                "type": "Conformance Rules Package"
            },
            "self": {
                "href": "/mdr/rules/sdtmig/3-4/rule/59a869fe-c770-4baa-b115-074fae1bb685",
                "title": "CDISC.SDTMIG.CG0517",
                "type": "Conformance Rule"
            },
            "standards": [
                {
                    "href": "/mdr/sdtmig/3-4",
                    "title": "Study Data Tabulation Model Implementation Guide: Human Clinical Trials",
                    "type": "Implementation Guide"
                }
            ]
        },
        "actions": [
            {
                "name": "generate_dataset_error_objects",
                "params": {
                    "message": "ARMNRS value is missing when ARMCD value is missing"
                }
            }
        ],
        "authority": {
            "Organization": "CDISC"
        },
        "classes": {
            "Include": [
                "Special-Purpose"
            ]
        },
        "conditions": {
            "all": [
                {
                    "name": "get_dataset",
                    "operator": "empty",
                    "value": {
                        "target": "ARMCD"
                    }
                },
                {
                    "name": "get_dataset",
                    "operator": "empty",
                    "value": {
                        "target": "ARMNRS"
                    }
                }
            ]
        },
        "core_id": "CDISC.SDTMIG.CG0517",
        "description": "Verify ARMNRS is not null when ARMCD is null",
        "domains": {
            "Include": [
                "DM"
            ]
        },
        "id": "59a869fe-c770-4baa-b115-074fae1bb685",
        "output_variables": [
            "ARMCD",
            "ARMNRS"
        ],
        "reference": [
            {
                "Origin": "SDTM and SDTMIG Conformance Rules",
                "Rule Identifier": {
                    "Id": "CG0517",
                    "Version": "1"
                },
                "Version": "2.0"
            }
        ],
        "rule_type": "Value Presence",
        "sensitivity": "Record",
        "severity": "error",
        "standards": [
            {
                "Name": "SDTMIG",
                "Version": "3.4"
            }
        ]
    },
    {
        "_links": {
            "package": {
                "href": "/mdr/rules/sdtmig/3-4",
                "title": "sdtmig Conformance Rules v3-4",
                "type": "Conformance Rules Package"
            },
            "self": {
                "href": "/mdr/rules/sdtmig/3-4/rule/5c6e5191-58b3-40e9-9a22-63f6a7d131d4",
                "title": "CDISC.SDTMIG.CG0033",
                "type": "Conformance Rule"
            },
            "standards": [
                {
                    "href": "/mdr/sdtmig/3-4",
                    "title": "Study Data Tabulation Model Implementation Guide: Human Clinical Trials",
                    "type": "Implementation Guide"
                }
            ]
        },
        "actions": [
            {
                "name": "generate_dataset_error_objects",
                "params": {
                    "message": "For a planned visit (SVPRESP = 'Y'), non-missing VISITNUM value must be among those present in TV.VISITNUM. in TV.VISITNUM"
                }
            }
        ],
        "authority": {
            "Organization": "CDISC"
        },
        "classes": {
            "Include": [
                "All"
            ]
        },
        "conditions": {
            "all": [
                {
                    "name": "get_dataset",
                    "operator": "equal_to",
                    "value": {
                        "comparator": "Y",
                        "target": "SVPRESP"
                    }
                },
                {
                    "name": "get_dataset",
                    "operator": "is_not_contained_by",
                    "value": {
                        "comparator": "$TV_VISITNUM",
                        "target": "VISITNUM"
                    }
                }
            ]
        },
        "core_id": "CDISC.SDTMIG.CG0033",
        "datasets": [
            {
                "domain_name": "SV",
                "match_key": [
                    "USUBJID",
                    "VISITNUM"
                ]
            }
        ],
        "description": "Verify when VISITNUM is not null in any given domain and VISITNUM is planned (SVPRESP = 'Y'), then VISIT should be among TV.VISITNUM.",
        "domains": {
            "Exclude": [
                "TV"
            ]
        },
        "id": "5c6e5191-58b3-40e9-9a22-63f6a7d131d4",
        "operations": [
            {
                "domain": "TV",
                "id": "$TV_VISITNUM",
                "name": "VISITNUM",
                "operator": "distinct"
            }
        ],
        "output_variables": [
            "VISITNUM",
            "SVPRESP"
        ],
        "reference": [
            {
                "Origin": "SDTM and SDTMIG Conformance Rules",
                "Rule Identifier": {
                    "Id": "CG0033",
                    "Version": "2"
                },
                "Version": "2.0"
            }
        ],
        "rule_type": "Range & Limit",
        "sensitivity": "Record",
        "severity": "error",
        "standards": [
            {
                "Name": "SDTMIG",
                "Version": "3.4"
            }
        ]
    },
    {
        "_links": {
            "package": {
                "href": "/mdr/rules/sdtmig/3-4",
                "title": "sdtmig Conformance Rules v3-4",
                "type": "Conformance Rules Package"
            },
            "self": {
                "href": "/mdr/rules/sdtmig/3-4/rule/5c8efb13-a1b4-4079-9fee-130d1bf29914",
                "title": "CDISC.SDTMIG.CG0529",
                "type": "Conformance Rule"
            },
            "standards": [
                {
                    "href": "/mdr/sdtmig/3-4",
                    "title": "Study Data Tabulation Model Implementation Guide: Human Clinical Trials",
                    "type": "Implementation Guide"
                }
            ]
        },
        "actions": [
            {
                "name": "generate_dataset_error_objects",
                "params": {
                    "message": "RFENDTC is missing when ARM is provided."
                }
            }
        ],
        "authority": {
            "Organization": "CDISC"
        },
        "classes": {
            "Include": [
                "Special-Purpose"
            ]
        },
        "conditions": {
            "all": [
                {
                    "name": "get_dataset",
                    "operator": "non_empty",
                    "value": {
                        "target": "ARM"
                    }
                },
                {
                    "name": "get_dataset",
                    "operator": "empty",
                    "value": {
                        "target": "RFENDTC"
                    }
                }
            ]
        },
        "core_id": "CDISC.SDTMIG.CG0529",
        "description": "Raise an error when ARM is not empty and RFENDTC is empty.",
        "domains": {
            "Include": [
                "DM"
            ]
        },
        "id": "5c8efb13-a1b4-4079-9fee-130d1bf29914",
        "output_variables": [
            "ARM",
            "RFENDTC"
        ],
        "reference": [
            {
                "Origin": "SDTM and SDTMIG Conformance Rules",
                "Rule Identifier": {
                    "Id": "CG0529",
                    "Version": "1"
                },
                "Version": "2.0"
            }
        ],
        "rule_type": "Consistency",
        "sensitivity": "Record",
        "severity": "error",
        "standards": [
            {
                "Name": "SDTMIG",
                "Version": "3.4"
            }
        ]
    },
    {
        "_links": {
            "package": {
                "href": "/mdr/rules/sdtmig/3-4",
                "title": "sdtmig Conformance Rules v3-4",
                "type": "Conformance Rules Package"
            },
            "self": {
                "href": "/mdr/rules/sdtmig/3-4/rule/60ed12e8-a863-4ba9-8404-47f5d7b5168e",
                "title": "CDISC.SDTMIG.CG0310",
                "type": "Conformance Rule"
            },
            "standards": [
                {
                    "href": "/mdr/sdtmig/3-4",
                    "title": "Study Data Tabulation Model Implementation Guide: Human Clinical Trials",
                    "type": "Implementation Guide"
                }
            ]
        },
        "actions": [
            {
                "name": "generate_dataset_error_objects",
                "params": {
                    "message": "Variable name length is greater than 8."
                }
            }
        ],
        "authority": {
            "Organization": "CDISC"
        },
        "classes": {
            "Include": [
                "All"
            ]
        },
        "conditions": {
            "all": [
                {
                    "name": "get_dataset",
                    "operator": "longer_than",
                    "value": {
                        "comparator": 8,
                        "target": "variable_name"
                    }
                }
            ]
        },
        "core_id": "CDISC.SDTMIG.CG0310",
        "description": "Raise an error when variable name length is greater than 8.",
        "domains": {
            "Include": [
                "All"
            ]
        },
        "id": "60ed12e8-a863-4ba9-8404-47f5d7b5168e",
        "output_variables": [],
        "reference": [
            {
                "Origin": "SDTM and SDTMIG Conformance Rules",
                "Rule Identifier": {
                    "Id": "CG0310",
                    "Version": "1"
                },
                "Version": "2.0"
            }
        ],
        "rule_type": "Variable Metadata Check",
        "sensitivity": "Variable",
        "severity": "error",
        "standards": [
            {
                "Name": "SDTMIG",
                "Version": "3.4"
            }
        ]
    },
    {
        "_links": {
            "package": {
                "href": "/mdr/rules/sdtmig/3-4",
                "title": "sdtmig Conformance Rules v3-4",
                "type": "Conformance Rules Package"
            },
            "self": {
                "href": "/mdr/rules/sdtmig/3-4/rule/6140401e-594d-45a7-9a35-2f812d9f26a8",
                "title": "CDISC.SDTMIG.CG0034",
                "type": "Conformance Rule"
            },
            "standards": [
                {
                    "href": "/mdr/sdtmig/3-4",
                    "title": "Study Data Tabulation Model Implementation Guide: Human Clinical Trials",
                    "type": "Implementation Guide"
                }
            ]
        },
        "actions": [
            {
                "name": "generate_dataset_error_objects",
                "params": {
                    "message": "VISITNUM is not among VISITNUM in SV domain."
                }
            }
        ],
        "authority": {
            "Organization": "CDISC"
        },
        "classes": {
            "Include": [
                "All"
            ]
        },
        "conditions": {
            "all": [
                {
                    "name": "get_dataset",
                    "operator": "non_empty",
                    "value": {
                        "target": "VISITNUM"
                    }
                },
                {
                    "name": "get_dataset",
                    "operator": "is_not_contained_by",
                    "value": {
                        "comparator": "$sv_visitnum",
                        "target": "VISITNUM"
                    }
                }
            ]
        },
        "core_id": "CDISC.SDTMIG.CG0034",
        "description": "If VISITNUM is not null then VISITNUM should be among SV.VISITNUM",
        "domains": {
            "Exclude": [
                "SV"
            ]
        },
        "id": "6140401e-594d-45a7-9a35-2f812d9f26a8",
        "operations": [
            {
                "domain": "SV",
                "id": "$sv_visitnum",
                "name": "VISITNUM",
                "operator": "distinct"
            }
        ],
        "output_variables": [
            "VISITNUM"
        ],
        "reference": [
            {
                "Origin": "SDTM and SDTMIG Conformance Rules",
                "Rule Identifier": {
                    "Id": "CG0034",
                    "Version": "2"
                },
                "Version": "2.0"
            }
        ],
        "rule_type": "Range & Limit",
        "sensitivity": "Record",
        "severity": "error",
        "standards": [
            {
                "Name": "SDTMIG",
                "Version": "3.4"
            }
        ]
    },
    {
        "_links": {
            "package": {
                "href": "/mdr/rules/sdtmig/3-4",
                "title": "sdtmig Conformance Rules v3-4",
                "type": "Conformance Rules Package"
            },
            "self": {
                "href": "/mdr/rules/sdtmig/3-4/rule/615e77ca-e151-4853-b740-5953742550ae",
                "title": "CDISC.SDTMIG.CG0542",
                "type": "Conformance Rule"
            },
            "standards": [
                {
                    "href": "/mdr/sdtmig/3-4",
                    "title": "Study Data Tabulation Model Implementation Guide: Human Clinical Trials",
                    "type": "Implementation Guide"
                }
            ]
        },
        "actions": [
            {
                "name": "generate_dataset_error_objects",
                "params": {
                    "message": "--BEATNO is present."
                }
            }
        ],
        "authority": {
            "Organization": "CDISC"
        },
        "classes": {
            "Include": [
                "Findings"
            ]
        },
        "conditions": {
            "all": [
                {
                    "name": "get_dataset",
                    "operator": "exists",
                    "value": {
                        "target": "--BEATNO"
                    }
                }
            ]
        },
        "core_id": "CDISC.SDTMIG.CG0542",
        "description": "Raise an error when --BEATNO is present.",
        "domains": {
            "Exclude": [
                "EG"
            ]
        },
        "id": "615e77ca-e151-4853-b740-5953742550ae",
        "output_variables": [],
        "reference": [
            {
                "Origin": "SDTM and SDTMIG Conformance Rules",
                "Rule Identifier": {
                    "Id": "CG0542",
                    "Version": "1"
                },
                "Version": "2.0"
            }
        ],
        "rule_type": "Variable Presence",
        "sensitivity": "Dataset",
        "severity": "error",
        "standards": [
            {
                "Name": "SDTMIG",
                "Version": "3.4"
            }
        ]
    },
    {
        "_links": {
            "package": {
                "href": "/mdr/rules/sdtmig/3-4",
                "title": "sdtmig Conformance Rules v3-4",
                "type": "Conformance Rules Package"
            },
            "self": {
                "href": "/mdr/rules/sdtmig/3-4/rule/61766f35-7d2f-4bb3-b119-407a5397873d",
                "title": "CDISC.SDTMIG.CG0241",
                "type": "Conformance Rule"
            },
            "standards": [
                {
                    "href": "/mdr/sdtmig/3-4",
                    "title": "Study Data Tabulation Model Implementation Guide: Human Clinical Trials",
                    "type": "Implementation Guide"
                }
            ]
        },
        "actions": [
            {
                "name": "generate_dataset_error_objects",
                "params": {
                    "message": "--ELTM is not the same value across records with the same values of DOMAIN, VISITNUM, --TPTREF, and --TPTNUM"
                }
            }
        ],
        "authority": {
            "Organization": "CDISC"
        },
        "classes": {
            "Include": [
                "All"
            ]
        },
        "conditions": {
            "all": [
                {
                    "name": "get_dataset",
                    "operator": "non_empty",
                    "value": {
                        "target": "--TPT"
                    }
                },
                {
                    "name": "get_dataset",
                    "operator": "non_empty",
                    "value": {
                        "target": "--TPTNUM"
                    }
                },
                {
                    "name": "get_dataset",
                    "operator": "non_empty",
                    "value": {
                        "target": "--ELTM"
                    }
                },
                {
                    "name": "get_dataset",
                    "operator": "is_unique_set",
                    "value": {
                        "comparator": [
                            "DOMAIN",
                            "VISITNUM",
                            "--TPTREF",
                            "--TPTNUM"
                        ],
                        "target": "--ELTM"
                    }
                }
            ]
        },
        "core_id": "CDISC.SDTMIG.CG0241",
        "description": "Trigger error where --TPT ^= null and --TPTNUM ^= null and --ELTM ^= null and --ELTM does not have the same value across records with the same values of DOMAIN, VISITNUM, --TPTREF, and --TPTNUM, when",
        "domains": {
            "Include": [
                "All"
            ]
        },
        "id": "61766f35-7d2f-4bb3-b119-407a5397873d",
        "output_variables": [
            "--TPT",
            "--TPTNUM",
            "--ELTM"
        ],
        "reference": [
            {
                "Origin": "SDTM and SDTMIG Conformance Rules",
                "Rule Identifier": {
                    "Id": "CG0241",
                    "Version": "1"
                },
                "Version": "2.0"
            }
        ],
        "rule_type": "Relationship Integrity Check",
        "sensitivity": "Domain",
        "severity": "warning",
        "standards": [
            {
                "Name": "SDTMIG",
                "Version": "3.4"
            }
        ]
    },
    {
        "_links": {
            "package": {
                "href": "/mdr/rules/sdtmig/3-4",
                "title": "sdtmig Conformance Rules v3-4",
                "type": "Conformance Rules Package"
            },
            "self": {
                "href": "/mdr/rules/sdtmig/3-4/rule/618469da-622d-49d0-8e14-02c2b38d6c04",
                "title": "CDISC.SDTMIG.CG0257",
                "type": "Conformance Rule"
            },
            "standards": [
                {
                    "href": "/mdr/sdtmig/3-4",
                    "title": "Study Data Tabulation Model Implementation Guide: Human Clinical Trials",
                    "type": "Implementation Guide"
                }
            ]
        },
        "actions": [
            {
                "name": "generate_dataset_error_objects",
                "params": {
                    "message": "Length of TSPARMCD is greater than 8"
                }
            }
        ],
        "authority": {
            "Organization": "CDISC"
        },
        "classes": {
            "Include": [
                "Trial Design"
            ]
        },
        "conditions": {
            "all": [
                {
                    "name": "get_dataset",
                    "operator": "longer_than",
                    "value": {
                        "comparator": 8,
                        "target": "TSPARMCD"
                    }
                }
            ]
        },
        "core_id": "CDISC.SDTMIG.CG0257",
        "description": "Trigger error when length of TSPARMCD is greater than 8",
        "domains": {
            "Include": [
                "TS"
            ]
        },
        "id": "618469da-622d-49d0-8e14-02c2b38d6c04",
        "output_variables": [
            "TSPARM",
            "TSPARMCD"
        ],
        "reference": [
            {
                "Origin": "SDTM and SDTMIG Conformance Rules",
                "Rule Identifier": {
                    "Id": "CG0257",
                    "Version": "1"
                },
                "Version": "2.0"
            }
        ],
        "rule_type": "Variable Length",
        "sensitivity": "Record",
        "severity": "error",
        "standards": [
            {
                "Name": "SDTMIG",
                "Version": "3.4"
            }
        ]
    },
    {
        "_links": {
            "package": {
                "href": "/mdr/rules/sdtmig/3-4",
                "title": "sdtmig Conformance Rules v3-4",
                "type": "Conformance Rules Package"
            },
            "self": {
                "href": "/mdr/rules/sdtmig/3-4/rule/627e8444-7d22-4ad7-b93e-db5bf68b08b1",
                "title": "CDISC.SDTMIG.CG0147",
                "type": "Conformance Rule"
            },
            "standards": [
                {
                    "href": "/mdr/sdtmig/3-4",
                    "title": "Study Data Tabulation Model Implementation Guide: Human Clinical Trials",
                    "type": "Implementation Guide"
                }
            ]
        },
        "actions": [
            {
                "name": "generate_dataset_error_objects",
                "params": {
                    "message": "RFXENDTC does not equal the latest value of EX.EXSTDTC or EX.EXENDTC"
                }
            }
        ],
        "authority": {
            "Organization": "CDISC"
        },
        "classes": {
            "Include": [
                "Special-Purpose"
            ]
        },
        "conditions": {
            "all": [
                {
                    "name": "get_dataset",
                    "operator": "is_contained_by",
                    "value": {
                        "comparator": "$ex_usubjid",
                        "target": "USUBJID"
                    }
                },
                {
                    "name": "get_dataset",
                    "operator": "not_equal_to",
                    "value": {
                        "comparator": "$max_ex_exstdtc",
                        "target": "RFXENDTC"
                    }
                },
                {
                    "name": "get_dataset",
                    "operator": "not_equal_to",
                    "value": {
                        "comparator": "$max_ex_exendtc",
                        "target": "RFXENDTC"
                    }
                }
            ]
        },
        "core_id": "CDISC.SDTMIG.CG0147",
        "description": "Raise an error when EX records are present for subject but RFXENDTC does not equal the latest value of EX.EXSTDTC or EX.EXENDTC",
        "domains": {
            "Include": [
                "DM"
            ]
        },
        "id": "627e8444-7d22-4ad7-b93e-db5bf68b08b1",
        "operations": [
            {
                "domain": "EX",
                "id": "$ex_usubjid",
                "name": "USUBJID",
                "operator": "distinct"
            },
            {
                "domain": "EX",
                "group": [
                    "USUBJID"
                ],
                "id": "$max_ex_exstdtc",
                "name": "EXSTDTC",
                "operator": "max_date"
            },
            {
                "domain": "EX",
                "group": [
                    "USUBJID"
                ],
                "id": "$max_ex_exendtc",
                "name": "EXENDTC",
                "operator": "max_date"
            }
        ],
        "output_variables": [
            "RFXENDTC",
            "$max_ex_exstdtc",
            "$max_ex_exendtc"
        ],
        "reference": [
            {
                "Origin": "SDTM and SDTMIG Conformance Rules",
                "Rule Identifier": {
                    "Id": "CG0147",
                    "Version": "1"
                },
                "Version": "2.0"
            }
        ],
        "rule_type": "Range & Limit",
        "sensitivity": "Record",
        "severity": "warning",
        "standards": [
            {
                "Name": "SDTMIG",
                "Version": "3.4"
            }
        ]
    },
    {
        "_links": {
            "package": {
                "href": "/mdr/rules/sdtmig/3-4",
                "title": "sdtmig Conformance Rules v3-4",
                "type": "Conformance Rules Package"
            },
            "self": {
                "href": "/mdr/rules/sdtmig/3-4/rule/63b54fc9-a285-48a4-ae6b-2a03b509b9a0",
                "title": "CDISC.SDTMIG.CG0430",
                "type": "Conformance Rule"
            },
            "standards": [
                {
                    "href": "/mdr/sdtmig/3-4",
                    "title": "Study Data Tabulation Model Implementation Guide: Human Clinical Trials",
                    "type": "Implementation Guide"
                }
            ]
        },
        "actions": [
            {
                "name": "generate_dataset_error_objects",
                "params": {
                    "message": "--SCAT exists in a dataset, but --CAT does not exist."
                }
            }
        ],
        "authority": {
            "Organization": "CDISC"
        },
        "classes": {
            "Include": [
                "All"
            ]
        },
        "conditions": {
            "all": [
                {
                    "name": "get_dataset",
                    "operator": "exists",
                    "value": {
                        "target": "--SCAT"
                    }
                },
                {
                    "name": "get_dataset",
                    "operator": "not_exists",
                    "value": {
                        "target": "--CAT"
                    }
                }
            ]
        },
        "core_id": "CDISC.SDTMIG.CG0430",
        "description": "Raise an error when --SCAT exists in a dataset, but --CAT does not exist.",
        "domains": {
            "Include": [
                "All"
            ]
        },
        "id": "63b54fc9-a285-48a4-ae6b-2a03b509b9a0",
        "output_variables": [
            "--CAT",
            "--SCAT"
        ],
        "reference": [
            {
                "Origin": "SDTM and SDTMIG Conformance Rules",
                "Rule Identifier": {
                    "Id": "CG0430",
                    "Version": "1"
                },
                "Version": "2.0"
            }
        ],
        "rule_type": "Variable Presence",
        "sensitivity": "Dataset",
        "severity": "error",
        "standards": [
            {
                "Name": "SDTMIG",
                "Version": "3.4"
            }
        ]
    },
    {
        "_links": {
            "package": {
                "href": "/mdr/rules/sdtmig/3-4",
                "title": "sdtmig Conformance Rules v3-4",
                "type": "Conformance Rules Package"
            },
            "self": {
                "href": "/mdr/rules/sdtmig/3-4/rule/63c003fb-7f67-462b-aed0-03f2ea7c9593",
                "title": "CDISC.SDTMIG.CG0423",
                "type": "Conformance Rule"
            },
            "standards": [
                {
                    "href": "/mdr/sdtmig/3-4",
                    "title": "Study Data Tabulation Model Implementation Guide: Human Clinical Trials",
                    "type": "Implementation Guide"
                }
            ]
        },
        "actions": [
            {
                "name": "generate_dataset_error_objects",
                "params": {
                    "message": "Missing --TRTV value, when --VAMT value is populated."
                }
            }
