{
	"creationDateTime": "2023-07-31T14:44:06",
	"datasetJSONVersion": "1.0.0",
	"fileOID": "UpdatedCDISCPILOT.CDISC SDTM.3.2.AE",
	"clinicalData": {
		"studyOID": "UpdatedCDISCPILOT.CDISC SDTM.3.2",
		"metaDataVersionOID": "MDV.UpdatedCDISCPILOT.CDISC SDTM.3.2",
		"itemGroupData": {
			"AE": {
				"records": 961,
				"name": "AE",
				"label": "Adverse Events",
				"items": [
					{
						"OID": "ITEMGROUPDATASEQ",
						"name": "ITEMGROUPDATASEQ",
						"label": "Record identifier",
						"type": "integer"
					},
					{
						"OID": "IT.AE.STUDYID",
						"name": "STUDYID",
						"label": "Study Identifier",
						"type": "string",
						"length": 12,
						"keySequence": 1
					},
					{
						"OID": "IT.AE.DOMAIN",
						"name": "DOMAIN",
						"label": "Domain Abbreviation",
						"type": "string",
						"length": 2
					},
					{
						"OID": "IT.AE.USUBJID",
						"name": "USUBJID",
						"label": "Unique Subject Identifier",
						"type": "string",
						"length": 11,
						"keySequence": 2
					},
					{
						"OID": "IT.AE.AESEQ",
						"name": "AESEQ",
						"label": "Sequence Number",
						"type": "integer",
						"length": 8,
						"keySequence": 5
					},
					{
						"OID": "IT.AE.AESPID",
						"name": "AESPID",
						"label": "Sponsor-Defined Identifier",
						"type": "string",
						"length": 3
					},
					{
						"OID": "IT.AE.AETERM",
						"name": "AETERM",
						"label": "Reported Term for the Adverse Event",
						"type": "string",
						"length": 200,
						"keySequence": 3
					},
					{
						"OID": "IT.AE.AELLT",
						"name": "AELLT",
						"label": "Lowest Level Term",
						"type": "string",
						"length": 100
					},
					{
						"OID": "IT.AE.AELLTCD",
						"name": "AELLTCD",
						"label": "Lowest Level Term Code",
						"type": "integer",
						"length": 8
					},
					{
						"OID": "IT.AE.AEDECOD",
						"name": "AEDECOD",
						"label": "Dictionary-Derived Term",
						"type": "string",
						"length": 200
					},
					{
						"OID": "IT.AE.AEPTCD",
						"name": "AEPTCD",
						"label": "Preferred Term Code",
						"type": "integer",
						"length": 8
					},
					{
						"OID": "IT.AE.AEHLT",
						"name": "AEHLT",
						"label": "High Level Term",
						"type": "string",
						"length": 100
					},
					{
						"OID": "IT.AE.AEHLTCD",
						"name": "AEHLTCD",
						"label": "High Level Term Code",
						"type": "integer",
						"length": 8
					},
					{
						"OID": "IT.AE.AEHLGT",
						"name": "AEHLGT",
						"label": "High Level Group Term",
						"type": "string",
						"length": 100
					},
					{
						"OID": "IT.AE.AEHLGTCD",
						"name": "AEHLGTCD",
						"label": "High Level Group Term Code",
						"type": "integer",
						"length": 8
					},
					{
						"OID": "IT.AE.AEBODSYS",
						"name": "AEBODSYS",
						"label": "Body System or Organ Class",
						"type": "string",
						"length": 67
					},
					{
						"OID": "IT.AE.AEBDSYCD",
						"name": "AEBDSYCD",
						"label": "Body System or Organ Class Code",
						"type": "integer",
						"length": 8
					},
					{
						"OID": "IT.AE.AESOC",
						"name": "AESOC",
						"label": "Primary System Organ Class",
						"type": "string",
						"length": 100
					},
					{
						"OID": "IT.AE.AESOCCD",
						"name": "AESOCCD",
						"label": "Primary System Organ Class Code",
						"type": "integer",
						"length": 8
					},
					{
						"OID": "IT.AE.AESEV",
						"name": "AESEV",
						"label": "Severity/Intensity",
						"type": "string",
						"length": 8
					},
					{
						"OID": "IT.AE.AESER",
						"name": "AESER",
						"label": "Serious Event",
						"type": "string",
						"length": 1
					},
					{
						"OID": "IT.AE.AEACN",
						"name": "AEACN",
						"label": "Action Taken with Study Treatment",
						"type": "string",
						"length": 30
					},
					{
						"OID": "IT.AE.AEREL",
						"name": "AEREL",
						"label": "Causality",
						"type": "string",
						"length": 8
					},
					{
						"OID": "IT.AE.AEOUT",
						"name": "AEOUT",
						"label": "Outcome of Adverse Event",
						"type": "string",
						"length": 200
					},
					{
						"OID": "IT.AE.AESCAN",
						"name": "AESCAN",
						"label": "Involves Cancer",
						"type": "string",
						"length": 1
					},
					{
						"OID": "IT.AE.AESCONG",
						"name": "AESCONG",
						"label": "Congenital Anomaly or Birth Defect",
						"type": "string",
						"length": 1
					},
					{
						"OID": "IT.AE.AESDISAB",
						"name": "AESDISAB",
						"label": "Persist or Signif Disability/Incapacity",
						"type": "string",
						"length": 1
					},
					{
						"OID": "IT.AE.AESDTH",
						"name": "AESDTH",
						"label": "Results in Death",
						"type": "string",
						"length": 1
					},
					{
						"OID": "IT.AE.AESHOSP",
						"name": "AESHOSP",
						"label": "Requires or Prolongs Hospitalization",
						"type": "string",
						"length": 1
					},
					{
						"OID": "IT.AE.AESLIFE",
						"name": "AESLIFE",
						"label": "Is Life Threatening",
						"type": "string",
						"length": 1
					},
					{
						"OID": "IT.AE.AESOD",
						"name": "AESOD",
						"label": "Occurred with Overdose",
						"type": "string",
						"length": 1
					},
					{
						"OID": "IT.AE.EPOCH",
						"name": "EPOCH",
						"label": "Epoch",
						"type": "string",
						"length": 9
					},
					{
						"OID": "IT.AE.AEDTC",
						"name": "AEDTC",
						"label": "Date/Time of Collection",
						"type": "string",
						"length": 10
					},
					{
						"OID": "IT.AE.AESTDTC",
						"name": "AESTDTC",
						"label": "Start Date/Time of Adverse Event",
						"type": "string",
						"length": 10,
						"keySequence": 4
					},
					{
						"OID": "IT.AE.AEENDTC",
						"name": "AEENDTC",
						"label": "End Date/Time of Adverse Event",
						"type": "string",
						"length": 10
					},
					{
						"OID": "IT.AE.AEDY",
						"name": "AEDY",
						"label": "Study Day of Visit/Collection/Exam",
						"type": "integer",
						"length": 8
					},
					{
						"OID": "IT.AE.AESTDY",
						"name": "AESTDY",
						"label": "Study Day of Start of Adverse Event",
						"type": "integer",
						"length": 8
					},
					{
						"OID": "IT.AE.AEENDY",
						"name": "AEENDY",
						"label": "Study Day of End of Adverse Event",
						"type": "integer",
						"length": 8
					}
				],
				"itemData": [
					[
						1,
						"CDISCPILOT01",
						"AE",
						"01-701-1015",
						1,
						"E07",
						"APPLICATION SITE ERYTHEMA",
						"APPLICATION SITE REDNESS",
						null,
						"APPLICATION SITE ERYTHEMA",
						null,
						"HLT_0617",
						null,
						"HLGT_0152",
						null,
						"GENERAL DISORDERS AND ADMINISTRATION SITE CONDITIONS",
						null,
						"GENERAL DISORDERS AND ADMINISTRATION SITE CONDITIONS",
						null,
						"MILD",
						"N",
						"",
						"PROBABLE",
						"NOT RECOVERED/NOT RESOLVED",
						"N",
						"N",
						"N",
						"N",
						"N",
						"N",
						"N",
						"TREATMENT",
						"2014-01-16",
						"2014-01-03",
						"",
						15,
						2,
						null
					],
					[
						2,
						"CDISCPILOT01",
						"AE",
						"01-701-1015",
						2,
						"E08",
						"APPLICATION SITE PRURITUS",
						"APPLICATION SITE ITCHING",
						null,
						"APPLICATION SITE PRURITUS",
						null,
						"HLT_0317",
						null,
						"HLGT_0338",
						null,
						"GENERAL DISORDERS AND ADMINISTRATION SITE CONDITIONS",
						null,
						"GENERAL DISORDERS AND ADMINISTRATION SITE CONDITIONS",
						null,
						"MILD",
						"N",
						"",
						"PROBABLE",
						"NOT RECOVERED/NOT RESOLVED",
						"N",
						"N",
						"N",
						"N",
						"N",
						"N",
						"N",
						"TREATMENT",
						"2014-01-16",
						"2014-01-03",
						"",
						15,
						2,
						null
					],
					[
						3,
						"CDISCPILOT01",
						"AE",
						"01-701-1015",
						3,
						"E06",
						"DIARRHOEA",
						"DIARRHEA",
						null,
						"DIARRHOEA",
						null,
						"HLT_0148",
						null,
						"HLGT_0588",
						null,
						"GASTROINTESTINAL DISORDERS",
						null,
						"GASTROINTESTINAL DISORDERS",
						null,
						"MILD",
						"N",
						"",
						"REMOTE",
						"RECOVERED/RESOLVED",
						"N",
						"N",
						"N",
						"N",
						"N",
						"N",
						"N",
						"TREATMENT",
						"2014-01-16",
						"2014-01-09",
						"2014-01-11",
						15,
						8,
						10
					],
					[
						4,
						"CDISCPILOT01",
						"AE",
						"01-701-1023",
						3,
						"E10",
						"ATRIOVENTRICULAR BLOCK SECOND DEGREE",
						"AV BLOCK SECOND DEGREE",
						null,
						"ATRIOVENTRICULAR BLOCK SECOND DEGREE",
						null,
						"HLT_0415",
						null,
						"HLGT_0086",
						null,
						"CARDIAC DISORDERS",
						null,
						"CARDIAC DISORDERS",
						null,
						"MILD",
						"N",
						"",
						"POSSIBLE",
						"NOT RECOVERED/NOT RESOLVED",
						"N",
						"N",
						"N",
						"N",
						"N",
						"N",
						"N",
						"TREATMENT",
						"2012-08-27",
						"2012-08-26",
						"",
						23,
						22,
						null
					],
					[
						5,
						"CDISCPILOT01",
						"AE",
						"01-701-1023",
						2,
						"E09",
						"ERYTHEMA",
						"LOCALIZED ERYTHEMA",
						null,
						"ERYTHEMA",
						null,
						"HLT_0284",
						null,
						"HLGT_0192",
						null,
						"SKIN AND SUBCUTANEOUS TISSUE DISORDERS",
						null,
						"SKIN AND SUBCUTANEOUS TISSUE DISORDERS",
						null,
						"MODERATE",
						"N",
						"",
						"PROBABLE",
						"NOT RECOVERED/NOT RESOLVED",
						"N",
						"N",
						"N",
						"N",
						"N",
						"N",
						"N",
						"TREATMENT",
						"2012-08-27",
						"2012-08-07",
						"",
						23,
						3,
						null
					],
					[
						6,
						"CDISCPILOT01",
						"AE",
						"01-701-1023",
						4,
						"E08",
						"ERYTHEMA",
						"ERYTHEMA",
						null,
						"ERYTHEMA",
						null,
						"HLT_0284",
						null,
						"HLGT_0192",
						null,
						"SKIN AND SUBCUTANEOUS TISSUE DISORDERS",
						null,
						"SKIN AND SUBCUTANEOUS TISSUE DISORDERS",
						null,
						"MILD",
						"N",
						"",
						"POSSIBLE",
						"RECOVERED/RESOLVED",
						"N",
						"N",
						"N",
						"N",
						"N",
						"N",
						"N",
						"TREATMENT",
						"2012-09-02",
						"2012-08-07",
						"2012-08-30",
						29,
						3,
						26
					],
					[
						7,
						"CDISCPILOT01",
						"AE",
						"01-701-1028",
						1,
						"E04",
						"APPLICATION SITE ERYTHEMA",
						"APPLICATION SITE ERYTHEMA",
						null,
						"APPLICATION SITE ERYTHEMA",
						null,
						"HLT_0617",
						null,
						"HLGT_0152",
						null,
						"GENERAL DISORDERS AND ADMINISTRATION SITE CONDITIONS",
						null,
						"GENERAL DISORDERS AND ADMINISTRATION SITE CONDITIONS",
						null,
						"MILD",
						"N",
						"",
						"POSSIBLE",
						"NOT RECOVERED/NOT RESOLVED",
						"N",
						"N",
						"N",
						"N",
						"N",
						"N",
						"N",
						"TREATMENT",
						"2013-08-01",
						"2013-07-21",
						"",
						14,
						3,
						null
					],
					[
						8,
						"CDISCPILOT01",
						"AE",
						"01-701-1028",
						2,
						"E05",
						"APPLICATION SITE PRURITUS",
						"APPLICATION SITE ITCHING",
						null,
						"APPLICATION SITE PRURITUS",
						null,
						"HLT_0317",
						null,
						"HLGT_0338",
						null,
						"GENERAL DISORDERS AND ADMINISTRATION SITE CONDITIONS",
						null,
						"GENERAL DISORDERS AND ADMINISTRATION SITE CONDITIONS",
						null,
						"MILD",
						"N",
						"",
						"PROBABLE",
						"NOT RECOVERED/NOT RESOLVED",
						"N",
						"N",
						"N",
						"N",
						"N",
						"N",
						"N",
						"TREATMENT",
						"2013-08-14",
						"2013-08-08",
						"",
						27,
						21,
						null
					],
					[
						9,
						"CDISCPILOT01",
						"AE",
						"01-701-1034",
						1,
						"E08",
						"APPLICATION SITE PRURITUS",
						"APPLICATION SITE ITCHING",
						null,
						"APPLICATION SITE PRURITUS",
						null,
						"HLT_0317",
						null,
						"HLGT_0338",
						null,
						"GENERAL DISORDERS AND ADMINISTRATION SITE CONDITIONS",
						null,
						"GENERAL DISORDERS AND ADMINISTRATION SITE CONDITIONS",
						null,
						"MILD",
						"N",
						"",
						"PROBABLE",
						"NOT RECOVERED/NOT RESOLVED",
						"N",
						"N",
						"N",
						"N",
						"N",
						"N",
						"N",
						"TREATMENT",
						"2014-09-25",
						"2014-08-27",
						"",
						87,
						58,
						null
					],
					[
						10,
						"CDISCPILOT01",
						"AE",
						"01-701-1034",
						2,
						"E07",
						"FATIGUE",
						"FATIGUE",
						null,
						"FATIGUE",
						null,
						"HLT_0043",
						null,
						"HLGT_0181",
						null,
						"GENERAL DISORDERS AND ADMINISTRATION SITE CONDITIONS",
						null,
						"GENERAL DISORDERS AND ADMINISTRATION SITE CONDITIONS",
						null,
						"MILD",
						"N",
						"",
						"POSSIBLE",
						"NOT RECOVERED/NOT RESOLVED",
						"N",
						"N",
						"N",
						"N",
						"N",
						"N",
						"N",
						"TREATMENT",
						"2014-11-18",
						"2014-11-02",
						"",
						141,
						125,
						null
					],
					[
						11,
						"CDISCPILOT01",
						"AE",
						"01-701-1047",
						4,
						"E09",
						"BUNDLE BRANCH BLOCK LEFT",
						"LEFT BUNDLE BRANCH BLOCK",
						null,
						"BUNDLE BRANCH BLOCK LEFT",
						null,
						"HLT_0281",
						null,
						"HLGT_0721",
						null,
						"CARDIAC DISORDERS",
						null,
						"CARDIAC DISORDERS",
						null,
						"MILD",
						"N",
						"",
						"NONE",
						"NOT RECOVERED/NOT RESOLVED",
						"N",
						"N",
						"N",
						"N",
						"N",
						"N",
						"N",
						"TREATMENT",
						"2013-03-10",
						"2013-03-10",
						"",
						27,
						27,
						null
					],
					[
						12,
						"CDISCPILOT01",
						"AE",
						"01-701-1047",
						2,
						"E06",
						"HIATUS HERNIA",
						"HERNIA HIATAL",
						null,
						"HIATUS HERNIA",
						null,
						"HLT_0159",
						null,
						"HLGT_0109",
						null,
						"GASTROINTESTINAL DISORDERS",
						null,
						"GASTROINTESTINAL DISORDERS",
						null,
						"MODERATE",
						"N",
						"",
						"NONE",
						"RECOVERED/RESOLVED",
						"N",
						"N",
						"N",
						"N",
						"N",
						"N",
						"N",
						"TREATMENT",
						"2013-02-25",
						"2013-02-12",
						"2013-02-12",
						14,
						1,
						1
					],
					[
						13,
						"CDISCPILOT01",
						"AE",
						"01-701-1047",
						3,
						"E08",
						"UPPER RESPIRATORY TRACT INFECTION",
						"UPPER RESPIRATORY INFECTION",
						null,
						"UPPER RESPIRATORY TRACT INFECTION",
						null,
						"HLT_0520",
						null,
						"HLGT_0489",
						null,
						"INFECTIONS AND INFESTATIONS",
						null,
						"INFECTIONS AND INFESTATIONS",
						null,
						"MILD",
						"N",
						"",
						"NONE",
						"NOT RECOVERED/NOT RESOLVED",
						"N",
						"N",
						"N",
						"N",
						"N",
						"N",
						"N",
						"TREATMENT",
						"2013-03-10",
						"2013-03-06",
						"",
						27,
						23,
						null
					],
					[
						14,
						"CDISCPILOT01",
						"AE",
						"01-701-1097",
						4,
						"E06",
						"APPLICATION SITE PRURITUS",
						"APPLICATION SITE ITCHING",
						null,
						"APPLICATION SITE PRURITUS",
						null,
						"HLT_0317",
						null,
						"HLGT_0338",
						null,
						"GENERAL DISORDERS AND ADMINISTRATION SITE CONDITIONS",
						null,
						"GENERAL DISORDERS AND ADMINISTRATION SITE CONDITIONS",
						null,
						"MILD",
						"N",
						"",
						"POSSIBLE",
						"NOT RECOVERED/NOT RESOLVED",
						"N",
						"N",
						"N",
						"N",
						"N",
						"N",
						"N",
						"TREATMENT",
						"2014-02-26",
						"2014-02-21",
						"",
						57,
						52,
						null
					],
					[
						15,
						"CDISCPILOT01",
						"AE",
						"01-701-1097",
						10,
						"E06",
						"APPLICATION SITE PRURITUS",
						"APPLICATION SITE ITCHING",
						null,
						"APPLICATION SITE PRURITUS",
						null,
						"HLT_0317",
						null,
						"HLGT_0338",
						null,
						"GENERAL DISORDERS AND ADMINISTRATION SITE CONDITIONS",
						null,
						"GENERAL DISORDERS AND ADMINISTRATION SITE CONDITIONS",
						null,
						"MODERATE",
						"N",
						"",
						"POSSIBLE",
						"NOT RECOVERED/NOT RESOLVED",
						"N",
						"N",
						"N",
						"N",
						"N",
						"N",
						"N",
						"TREATMENT",
						"2014-05-21",
						"2014-02-21",
						"",
						141,
						52,
						null
					],
					[
						16,
						"CDISCPILOT01",
						"AE",
						"01-701-1097",
						3,
						"E07",
						"APPLICATION SITE VESICLES",
						"APPLICATION SITE BLISTER",
						null,
						"APPLICATION SITE VESICLES",
						null,
						"HLT_0180",
						null,
						"HLGT_0576",
						null,
						"GENERAL DISORDERS AND ADMINISTRATION SITE CONDITIONS",
						null,
						"GENERAL DISORDERS AND ADMINISTRATION SITE CONDITIONS",
						null,
						"MILD",
						"N",
						"",
						"PROBABLE",
						"RECOVERED/RESOLVED",
						"N",
						"N",
						"N",
						"N",
						"N",
						"N",
						"N",
						"TREATMENT",
						"2014-02-26",
						"2014-02-20",
						"2014-02-22",
						57,
						51,
						53
					],
					[
						17,
						"CDISCPILOT01",
						"AE",
						"01-701-1097",
						1,
						"E04",
						"ERYTHEMA",
						"ERYTHEMA",
						null,
						"ERYTHEMA",
						null,
						"HLT_0284",
						null,
						"HLGT_0192",
						null,
						"SKIN AND SUBCUTANEOUS TISSUE DISORDERS",
						null,
						"SKIN AND SUBCUTANEOUS TISSUE DISORDERS",
						null,
						"MILD",
						"N",
						"",
						"POSSIBLE",
						"NOT RECOVERED/NOT RESOLVED",
						"N",
						"N",
						"N",
						"N",
						"N",
						"N",
						"N",
						"TREATMENT",
						"2014-01-15",
						"2014-01-03",
						"",
						15,
						3,
						null
					],
					[
						18,
						"CDISCPILOT01",
						"AE",
						"01-701-1097",
						9,
						"E11",
						"NASAL CONGESTION",
						"NASAL CONGESTION",
						null,
						"NASAL CONGESTION",
						null,
						"HLT_0118",
						null,
						"HLGT_0549",
						null,
						"RESPIRATORY, THORACIC AND MEDIASTINAL DISORDERS",
						null,
						"RESPIRATORY, THORACIC AND MEDIASTINAL DISORDERS",
						null,
						"MILD",
						"N",
						"",
						"NONE",
						"RECOVERED/RESOLVED",
						"N",
						"N",
						"N",
						"N",
						"N",
						"N",
						"N",
						"TREATMENT",
						"2014-04-23",
						"2014-04-19",
						"2014-04-22",
						113,
						109,
						112
					],
					[
						19,
						"CDISCPILOT01",
						"AE",
						"01-701-1097",
						8,
						"E10",
						"PHARYNGOLARYNGEAL PAIN",
						"SORE THROAT",
						null,
						"PHARYNGOLARYNGEAL PAIN",
						null,
						"HLT_0130",
						null,
						"HLGT_0402",
						null,
						"RESPIRATORY, THORACIC AND MEDIASTINAL DISORDERS",
						null,
						"RESPIRATORY, THORACIC AND MEDIASTINAL DISORDERS",
						null,
						"MILD",
						"N",
						"",
						"NONE",
						"RECOVERED/RESOLVED",
						"N",
						"N",
						"N",
						"N",
						"N",
						"N",
						"N",
						"TREATMENT",
						"2014-04-23",
						"2014-04-19",
						"2014-04-22",
						113,
						109,
						112
					],
					[
						20,
						"CDISCPILOT01",
						"AE",
						"01-701-1097",
						2,
						"E05",
						"PRURITUS GENERALISED",
						"GENERALIZED PRURITUS",
						null,
						"PRURITUS GENERALISED",
						null,
						"HLT_0123",
						null,
						"HLGT_0689",
						null,
						"SKIN AND SUBCUTANEOUS TISSUE DISORDERS",
						null,
						"SKIN AND SUBCUTANEOUS TISSUE DISORDERS",
						null,
						"MODERATE",
						"N",
						"",
						"POSSIBLE",
						"RECOVERED/RESOLVED",
						"N",
						"N",
						"N",
						"N",
						"N",
						"N",
						"N",
						"TREATMENT",
						"2014-02-26",
						"2014-02-20",
						"2014-02-20",
						57,
						51,
						51
					],
					[
						21,
						"CDISCPILOT01",
						"AE",
						"01-701-1097",
						5,
						"E08",
						"PRURITUS GENERALISED",
						"GENERALIZED PRURITUS",
						null,
						"PRURITUS GENERALISED",
						null,
						"HLT_0123",
						null,
						"HLGT_0689",
						null,
						"SKIN AND SUBCUTANEOUS TISSUE DISORDERS",
						null,
						"SKIN AND SUBCUTANEOUS TISSUE DISORDERS",
						null,
						"MODERATE",
						"N",
						"",
						"POSSIBLE",
						"RECOVERED/RESOLVED",
						"N",
						"N",
						"N",
						"N",
						"N",
						"N",
						"N",
						"TREATMENT",
						"2014-03-26",
						"2014-03-21",
						"2014-03-21",
						85,
						80,
						80
					],
					[
						22,
						"CDISCPILOT01",
						"AE",
						"01-701-1097",
						6,
						"E12",
						"PRURITUS GENERALISED",
						"GENERALIZED PRURITUS",
						null,
						"PRURITUS GENERALISED",
						null,
						"HLT_0123",
						null,
						"HLGT_0689",
						null,
						"SKIN AND SUBCUTANEOUS TISSUE DISORDERS",
						null,
						"SKIN AND SUBCUTANEOUS TISSUE DISORDERS",
						null,
						"MODERATE",
						"N",
						"",
						"POSSIBLE",
						"RECOVERED/RESOLVED",
						"N",
						"N",
						"N",
						"N",
						"N",
						"N",
						"N",
						"TREATMENT",
						"2014-04-23",
						"2014-03-31",
						"2014-03-31",
						113,
						90,
						90
					],
					[
						23,
						"CDISCPILOT01",
						"AE",
						"01-701-1097",
						7,
						"E09",
						"PRURITUS GENERALISED",
						"GENERALIZED PRURITUS",
						null,
						"PRURITUS GENERALISED",
						null,
						"HLT_0123",
						null,
						"HLGT_0689",
						null,
						"SKIN AND SUBCUTANEOUS TISSUE DISORDERS",
						null,
						"SKIN AND SUBCUTANEOUS TISSUE DISORDERS",
						null,
						"MODERATE",
						"N",
						"",
						"POSSIBLE",
						"RECOVERED/RESOLVED",
						"N",
						"N",
						"N",
						"N",
						"N",
						"N",
						"N",
						"TREATMENT",
						"2014-04-23",
						"2014-04-19",
						"2014-04-20",
						113,
						109,
						110
					],
					[
						24,
						"CDISCPILOT01",
						"AE",
						"01-701-1111",
						7,
						"E16",
						"ARTHRALGIA",
						"GENERALIZED JOINT PAIN",
						null,
						"ARTHRALGIA",
						null,
						"HLT_0375",
						null,
						"HLGT_0610",
						null,
						"MUSCULOSKELETAL AND CONNECTIVE TISSUE DISORDERS",
						null,
						"MUSCULOSKELETAL AND CONNECTIVE TISSUE DISORDERS",
						null,
						"MODERATE",
						"N",
						"",
						"NONE",
						"NOT RECOVERED/NOT RESOLVED",
						"N",
						"N",
						"N",
						"N",
						"N",
						"N",
						"N",
						"TREATMENT",
						"2012-09-17",
						"2012-09-13",
						"",
						11,
						7,
						null
					],
					[
						25,
						"CDISCPILOT01",
						"AE",
						"01-701-1111",
						8,
						"E17",
						"CELLULITIS",
						"CELLULITIS OF LEG",
						null,
						"CELLULITIS",
						null,
						"HLT_0613",
						null,
						"HLGT_0066",
						null,
						"INFECTIONS AND INFESTATIONS",
						null,
						"INFECTIONS AND INFESTATIONS",
						null,
						"MODERATE",
						"N",
						"",
						"NONE",
						"NOT RECOVERED/NOT RESOLVED",
						"N",
						"N",
						"N",
						"N",
						"N",
						"N",
						"N",
						"TREATMENT",
						"2012-09-17",
						"2012-09-13",
						"",
						11,
						7,
						null
					],
					[
						26,
						"CDISCPILOT01",
						"AE",
						"01-701-1111",
						4,
						"E14",
						"ERYTHEMA",
						"ERYTHEMA",
						null,
						"ERYTHEMA",
						null,
						"HLT_0284",
						null,
						"HLGT_0192",
						null,
						"SKIN AND SUBCUTANEOUS TISSUE DISORDERS",
						null,
						"SKIN AND SUBCUTANEOUS TISSUE DISORDERS",
						null,
						"MILD",
						"N",
						"",
						"NONE",
						"RECOVERED/RESOLVED",
						"N",
						"N",
						"N",
						"N",
						"N",
						"N",
						"N",
						"SCREENING",
						"2012-09-17",
						"2012-09-02",
						"2012-09-07",
						11,
						-5,
						1
					],
					[
						27,
						"CDISCPILOT01",
						"AE",
						"01-701-1111",
						3,
						"E06",
						"LOCALISED INFECTION",
						"LOCALIZED INFECTION",
						null,
						"LOCALISED INFECTION",
						null,
						"HLT_0435",
						null,
						"HLGT_0557",
						null,
						"INFECTIONS AND INFESTATIONS",
						null,
						"INFECTIONS AND INFESTATIONS",
						null,
						"MODERATE",
						"N",
						"",
						"NONE",
						"NOT RECOVERED/NOT RESOLVED",
						"N",
						"N",
						"N",
						"N",
						"N",
						"N",
						"N",
						"SCREENING",
						"2012-09-17",
						"2012-07-08",
						"",
						11,
						-61,
						null
					],
					[
						28,
						"CDISCPILOT01",
						"AE",
						"01-701-1111",
						6,
						"E18",
						"MICTURITION URGENCY",
						"URINARY URGENCY",
						null,
						"MICTURITION URGENCY",
						null,
						"HLT_0294",
						null,
						"HLGT_0483",
						null,
						"RENAL AND URINARY DISORDERS",
						null,
						"RENAL AND URINARY DISORDERS",
						null,
						"MILD",
						"N",
						"",
						"NONE",
						"NOT RECOVERED/NOT RESOLVED",
						"N",
						"N",
						"N",
						"N",
						"N",
						"N",
						"N",
						"TREATMENT",
						"2012-09-17",
						"2012-09-07",
						"",
						11,
						1,
						null
					],
					[
						29,
						"CDISCPILOT01",
						"AE",
						"01-701-1111",
						5,
						"E15",
						"PRURITUS",
						"ITCHING",
						null,
						"PRURITUS",
						null,
						"HLT_0778",
						null,
						"HLGT_0695",
						null,
						"SKIN AND SUBCUTANEOUS TISSUE DISORDERS",
						null,
						"SKIN AND SUBCUTANEOUS TISSUE DISORDERS",
						null,
						"MILD",
						"N",
						"",
						"NONE",
						"RECOVERED/RESOLVED",
						"N",
						"N",
						"N",
						"N",
						"N",
						"N",
						"N",
						"SCREENING",
						"2012-09-17",
						"2012-09-02",
						"2012-09-07",
						11,
						-5,
						1
					],
					[
						30,
						"CDISCPILOT01",
						"AE",
						"01-701-1115",
						9,
						"E14",
						"APPLICATION SITE DERMATITIS",
						"APPLICATION SITE RASH",
						null,
						"APPLICATION SITE DERMATITIS",
						null,
						"HLT_0343",
						null,
						"HLGT_0241",
						null,
						"GENERAL DISORDERS AND ADMINISTRATION SITE CONDITIONS",
						null,
						"GENERAL DISORDERS AND ADMINISTRATION SITE CONDITIONS",
						null,
						"MODERATE",
						"N",
						"",
						"PROBABLE",
						"NOT RECOVERED/NOT RESOLVED",
						"N",
						"N",
						"N",
						"N",
						"N",
						"N",
						"N",
						"TREATMENT",
						"2013-01-23",
						"2013-01-19",
						"",
						55,
						51,
						null
					],
					[
						31,
						"CDISCPILOT01",
						"AE",
						"01-701-1115",
						1,
						"E09",
						"APPLICATION SITE ERYTHEMA",
						"APPLICATION SITE REDNESS",
						null,
						"APPLICATION SITE ERYTHEMA",
						null,
						"HLT_0617",
						null,
						"HLGT_0152",
						null,
						"GENERAL DISORDERS AND ADMINISTRATION SITE CONDITIONS",
						null,
						"GENERAL DISORDERS AND ADMINISTRATION SITE CONDITIONS",
						null,
						"MILD",
						"N",
						"",
						"PROBABLE",
						"NOT RECOVERED/NOT RESOLVED",
						"N",
						"N",
						"N",
						"N",
						"N",
						"N",
						"N",
						"TREATMENT",
						"2012-12-13",
						"2012-12-02",
						"",
						14,
						3,
						null
					],
					[
						32,
						"CDISCPILOT01",
						"AE",
						"01-701-1115",
						5,
						"E09",
						"APPLICATION SITE ERYTHEMA",
						"APPLICATION SITE REDNESS",
						null,
						"APPLICATION SITE ERYTHEMA",
						null,
						"HLT_0617",
						null,
						"HLGT_0152",
						null,
						"GENERAL DISORDERS AND ADMINISTRATION SITE CONDITIONS",
						null,
						"GENERAL DISORDERS AND ADMINISTRATION SITE CONDITIONS",
						null,
						"MODERATE",
						"N",
						"",
						"PROBABLE",
						"NOT RECOVERED/NOT RESOLVED",
						"N",
						"N",
						"N",
						"N",
						"N",
						"N",
						"N",
						"TREATMENT",
						"2013-01-23",
						"2012-12-02",
						"",
						55,
						3,
						null
					],
					[
						33,
						"CDISCPILOT01",
						"AE",
						"01-701-1115",
						4,
						"E10",
						"APPLICATION SITE IRRITATION",
						"APPLICATION SITE BURNING",
						null,
						"APPLICATION SITE IRRITATION",
						null,
						"HLT_0061",
						null,
						"HLGT_0346",
						null,
						"GENERAL DISORDERS AND ADMINISTRATION SITE CONDITIONS",
						null,
						"GENERAL DISORDERS AND ADMINISTRATION SITE CONDITIONS",
						null,
						"MILD",
						"N",
						"",
						"POSSIBLE",
						"RECOVERED/RESOLVED",
						"N",
						"N",
						"N",
						"N",
						"N",
						"N",
						"N",
						"TREATMENT",
						"2012-12-28",
						"2012-12-26",
						"2012-12-26",
						29,
						27,
						27
					],
					[
						34,
						"CDISCPILOT01",
						"AE",
						"01-701-1115",
						8,
						"E12",
						"APPLICATION SITE IRRITATION",
						"APPLICATION SITE BURNING",
						null,
						"APPLICATION SITE IRRITATION",
						null,
						"HLT_0061",
						null,
						"HLGT_0346",
						null,
						"GENERAL DISORDERS AND ADMINISTRATION SITE CONDITIONS",
						null,
						"GENERAL DISORDERS AND ADMINISTRATION SITE CONDITIONS",
						null,
						"MODERATE",
						"N",
						"",
						"PROBABLE",
						"NOT RECOVERED/NOT RESOLVED",
						"N",
						"N",
						"N",
						"N",
						"N",
						"N",
						"N",
						"TREATMENT",
						"2013-01-23",
						"2013-01-19",
						"",
						55,
						51,
						null
					],
					[
						35,
						"CDISCPILOT01",
						"AE",
						"01-701-1115",
						2,
						"E11",
						"APPLICATION SITE PRURITUS",
						"APPLICATION SITE ITCHING",
						null,
						"APPLICATION SITE PRURITUS",
						null,
						"HLT_0317",
						null,
						"HLGT_0338",
						null,
						"GENERAL DISORDERS AND ADMINISTRATION SITE CONDITIONS",
						null,
						"GENERAL DISORDERS AND ADMINISTRATION SITE CONDITIONS",
						null,
						"MILD",
						"N",
						"",
						"PROBABLE",
						"NOT RECOVERED/NOT RESOLVED",
						"N",
						"N",
						"N",
						"N",
						"N",
						"N",
						"N",
						"TREATMENT",
						"2012-12-13",
						"2012-12-02",
						"",
						14,
						3,
						null
					],
					[
						36,
						"CDISCPILOT01",
						"AE",
						"01-701-1115",
						6,
						"E11",
						"APPLICATION SITE PRURITUS",
						"APPLICATION SITE ITCHING",
						null,
						"APPLICATION SITE PRURITUS",
						null,
						"HLT_0317",
						null,
						"HLGT_0338",
						null,
						"GENERAL DISORDERS AND ADMINISTRATION SITE CONDITIONS",
						null,
						"GENERAL DISORDERS AND ADMINISTRATION SITE CONDITIONS",
						null,
						"MODERATE",
						"N",
						"",
						"PROBABLE",
						"NOT RECOVERED/NOT RESOLVED",
						"N",
						"N",
						"N",
						"N",
						"N",
						"N",
						"N",
						"TREATMENT",
						"2013-01-23",
						"2012-12-02",
						"",
						55,
						3,
						null
					],
					[
						37,
						"CDISCPILOT01",
						"AE",
						"01-701-1115",
						7,
						"E13",
						"FATIGUE",
						"FATIGUE",
						null,
						"FATIGUE",
						null,
						"HLT_0043",
						null,
						"HLGT_0181",
						null,
						"GENERAL DISORDERS AND ADMINISTRATION SITE CONDITIONS",
						null,
						"GENERAL DISORDERS AND ADMINISTRATION SITE CONDITIONS",
						null,
						"MODERATE",
						"N",
						"",
						"REMOTE",
						"NOT RECOVERED/NOT RESOLVED",
						"N",
						"N",
						"N",
						"N",
						"N",
						"N",
						"N",
						"TREATMENT",
						"2013-01-23",
						"2013-01-14",
						"",
						55,
						46,
						null
					],
					[
						38,
						"CDISCPILOT01",
						"AE",
						"01-701-1118",
						1,
						"E06",
						"COUGH",
						"COUGH",
						null,
						"COUGH",
						null,
						"HLT_0701",
						null,
						"HLGT_0280",
						null,
						"RESPIRATORY, THORACIC AND MEDIASTINAL DISORDERS",
						null,
						"RESPIRATORY, THORACIC AND MEDIASTINAL DISORDERS",
						null,
						"MILD",
						"N",
						"",
						"NONE",
						"NOT RECOVERED/NOT RESOLVED",
						"N",
						"N",
						"N",
						"N",
						"N",
						"N",
						"N",
						"SCREENING",
						"2014-03-10",
						"2003",
						"",
						-2,
						null,
						null
					],
					[
						39,
						"CDISCPILOT01",
						"AE",
						"01-701-1130",
						5,
						"E09",
						"EYE ALLERGY",
						"EYE ALLERGY",
						null,
						"EYE ALLERGY",
						null,
						"HLT_0256",
						null,
						"HLGT_0071",
						null,
						"EYE DISORDERS",
						null,
						"EYE DISORDERS",
						null,
						"MILD",
						"N",
						"",
						"NONE",
						"RECOVERED/RESOLVED",
						"N",
						"N",
						"N",
						"N",
						"N",
						"N",
						"N",
						"TREATMENT",
						"2014-05-16",
						"2014-05-09",
						"2014-05-09",
						91,
						84,
						84
					],
					[
						40,
						"CDISCPILOT01",
						"AE",
						"01-701-1130",
						6,
						"E10",
						"EYE PRURITUS",
						"EYE ITCHING",
						null,
						"EYE PRURITUS",
						null,
						"HLT_0523",
						null,
						"HLGT_0240",
						null,
						"EYE DISORDERS",
						null,
						"EYE DISORDERS",
						null,
						"MILD",
						"N",
						"",
						"REMOTE",
						"NOT RECOVERED/NOT RESOLVED",
						"N",
						"N",
						"N",
						"N",
						"N",
						"N",
						"N",
						"TREATMENT",
						"2014-06-07",
						"2014-05-22",
						"",
						113,
						97,
						null
					],
					[
						41,
						"CDISCPILOT01",
						"AE",
						"01-701-1130",
						4,
						"E08",
						"EYE SWELLING",
						"EYES SWOLLEN",
						null,
						"EYE SWELLING",
						null,
						"HLT_0008",
						null,
						"HLGT_0466",
						null,
						"EYE DISORDERS",
						null,
						"EYE DISORDERS",
						null,
						"MILD",
						"N",
						"",
						"NONE",
						"RECOVERED/RESOLVED",
						"N",
						"N",
						"N",
						"N",
						"N",
						"N",
						"N",
						"TREATMENT",
						"2014-05-16",
						"2014-05-09",
						"2014-05-09",
						91,
						84,
						84
					],
					[
						42,
						"CDISCPILOT01",
						"AE",
						"01-701-1130",
						8,
						"E12",
						"NASAL CONGESTION",
						"NASAL CONGESTION",
						null,
						"NASAL CONGESTION",
						null,
						"HLT_0118",
						null,
						"HLGT_0549",
						null,
						"RESPIRATORY, THORACIC AND MEDIASTINAL DISORDERS",
						null,
						"RESPIRATORY, THORACIC AND MEDIASTINAL DISORDERS",
						null,
						"MILD",
						"N",
						"",
						"REMOTE",
						"NOT RECOVERED/NOT RESOLVED",
						"N",
						"N",
						"N",
						"N",
						"N",
						"N",
						"N",
						"TREATMENT",
						"2014-06-07",
						"2014-05-22",
						"",
						113,
						97,
						null
					],
					[
						43,
						"CDISCPILOT01",
						"AE",
						"01-701-1130",
						7,
						"E11",
						"PRURITUS",
						"ITCHING BOTH HANDS",
						null,
						"PRURITUS",
						null,
						"HLT_0778",
						null,
						"HLGT_0695",
						null,
						"SKIN AND SUBCUTANEOUS TISSUE DISORDERS",
						null,
						"SKIN AND SUBCUTANEOUS TISSUE DISORDERS",
						null,
						"MILD",
						"N",
						"",
						"REMOTE",
						"NOT RECOVERED/NOT RESOLVED",
						"N",
						"N",
						"N",
						"N",
						"N",
						"N",
						"N",
						"TREATMENT",
						"2014-06-07",
						"2014-05-22",
						"",
						113,
						97,
						null
					],
					[
						44,
						"CDISCPILOT01",
						"AE",
						"01-701-1130",
						2,
						"E07",
						"PYREXIA",
						"FEVER",
						null,
						"PYREXIA",
						null,
						"HLT_0310",
						null,
						"HLGT_0652",
						null,
						"GENERAL DISORDERS AND ADMINISTRATION SITE CONDITIONS",
						null,
						"GENERAL DISORDERS AND ADMINISTRATION SITE CONDITIONS",
						null,
						"MILD",
						"N",
						"",
						"NONE",
						"RECOVERED/RESOLVED",
						"N",
						"N",
						"N",
						"N",
						"N",
						"N",
						"N",
						"TREATMENT",
						"2014-03-15",
						"2014-03-09",
						"2014-03-09",
						29,
						23,
						23
					],
					[
						45,
						"CDISCPILOT01",
						"AE",
						"01-701-1130",
						3,
						"E06",
						"URINARY TRACT INFECTION",
						"URINARY TRACT INFECTION",
						null,
						"URINARY TRACT INFECTION",
						null,
						"HLT_0161",
						null,
						"HLGT_0093",
						null,
						"INFECTIONS AND INFESTATIONS",
						null,
						"INFECTIONS AND INFESTATIONS",
						null,
						"MILD",
						"N",
						"",
						"NONE",
						"RECOVERED/RESOLVED",
						"N",
						"N",
						"N",
						"N",
						"N",
						"N",
						"N",
						"TREATMENT",
						"2014-03-17",
						"2014-03-09",
						"2014-03-16",
						31,
						23,
						30
					],
					[
						46,
						"CDISCPILOT01",
						"AE",
						"01-701-1133",
						1,
						"E04",
						"APPLICATION SITE ERYTHEMA",
						"APPLICATION SITE REDNESS",
						null,
						"APPLICATION SITE ERYTHEMA",
						null,
						"HLT_0617",
						null,
						"HLGT_0152",
						null,
						"GENERAL DISORDERS AND ADMINISTRATION SITE CONDITIONS",
						null,
						"GENERAL DISORDERS AND ADMINISTRATION SITE CONDITIONS",
						null,
						"MILD",
						"N",
						"",
						"PROBABLE",
						"NOT RECOVERED/NOT RESOLVED",
						"N",
						"N",
						"N",
						"N",
						"N",
						"N",
						"N",
						"TREATMENT",
						"2013-01-22",
						"2012-12-27",
						"",
						87,
						61,
						null
					],
					[
						47,
						"CDISCPILOT01",
						"AE",
						"01-701-1133",
						3,
						"E04",
						"APPLICATION SITE ERYTHEMA",
						"APPLICATION SITE REDNESS",
						null,
						"APPLICATION SITE ERYTHEMA",
						null,
						"HLT_0617",
						null,
						"HLGT_0152",
						null,
						"GENERAL DISORDERS AND ADMINISTRATION SITE CONDITIONS",
						null,
						"GENERAL DISORDERS AND ADMINISTRATION SITE CONDITIONS",
						null,
						"MODERATE",
						"N",
						"",
						"PROBABLE",
						"NOT RECOVERED/NOT RESOLVED",
						"N",
						"N",
						"N",
						"N",
						"N",
						"N",
						"N",
						"TREATMENT",
						"2013-02-18",
						"2012-12-27",
						"",
						114,
						61,
						null
					],
					[
						48,
						"CDISCPILOT01",
						"AE",
						"01-701-1133",
						2,
						"E05",
						"APPLICATION SITE PRURITUS",
						"APPLICATION SITE ITCHING",
						null,
						"APPLICATION SITE PRURITUS",
						null,
						"HLT_0317",
						null,
						"HLGT_0338",
						null,
						"GENERAL DISORDERS AND ADMINISTRATION SITE CONDITIONS",
						null,
						"GENERAL DISORDERS AND ADMINISTRATION SITE CONDITIONS",
						null,
						"MILD",
						"N",
						"",
						"PROBABLE",
						"NOT RECOVERED/NOT RESOLVED",
						"N",
						"N",
						"N",
						"N",
						"N",
						"N",
						"N",
						"TREATMENT",
						"2013-01-22",
						"2012-12-27",
						"",
						87,
						61,
						null
					],
					[
						49,
						"CDISCPILOT01",
						"AE",
						"01-701-1133",
						4,
						"E05",
						"APPLICATION SITE PRURITUS",
						"APPLICATION SITE ITCHING",
						null,
						"APPLICATION SITE PRURITUS",
						null,
						"HLT_0317",
						null,
						"HLGT_0338",
						null,
						"GENERAL DISORDERS AND ADMINISTRATION SITE CONDITIONS",
						null,
						"GENERAL DISORDERS AND ADMINISTRATION SITE CONDITIONS",
						null,
						"MODERATE",
						"N",
						"",
						"PROBABLE",
						"NOT RECOVERED/NOT RESOLVED",
						"N",
						"N",
						"N",
						"N",
						"N",
						"N",
						"N",
						"TREATMENT",
						"2013-02-18",
						"2012-12-27",
						"",
						114,
						61,
						null
					],
					[
						50,
						"CDISCPILOT01",
						"AE",
						"01-701-1146",
						5,
						"E12",
						"APPLICATION SITE ERYTHEMA",
						"APPLICATION SITE ERYTHEMA",
						null,
						"APPLICATION SITE ERYTHEMA",
						null,
						"HLT_0617",
						null,
						"HLGT_0152",
						null,
						"GENERAL DISORDERS AND ADMINISTRATION SITE CONDITIONS",
						null,
						"GENERAL DISORDERS AND ADMINISTRATION SITE CONDITIONS",
						null,
						"MILD",
						"N",
						"",
						"PROBABLE",
						"NOT RECOVERED/NOT RESOLVED",
						"N",
						"N",
						"N",
						"N",
						"N",
						"N",
						"N",
						"TREATMENT",
						"2013-06-16",
						"2013-06-10",
						"",
						28,
						22,
						null
					],
					[
						51,
						"CDISCPILOT01",
						"AE",
						"01-701-1146",
						7,
						"E12",
						"APPLICATION SITE ERYTHEMA",
						"APPLICATION SITE ERYTHEMA",
						null,
						"APPLICATION SITE ERYTHEMA",
						null,
						"HLT_0617",
						null,
						"HLGT_0152",
						null,
						"GENERAL DISORDERS AND ADMINISTRATION SITE CONDITIONS",
						null,
						"GENERAL DISORDERS AND ADMINISTRATION SITE CONDITIONS",
						null,
						"MODERATE",
						"N",
						"",
						"PROBABLE",
						"NOT RECOVERED/NOT RESOLVED",
						"N",
						"N",
						"N",
						"N",
						"N",
						"N",
						"N",
						"TREATMENT",
						"2013-06-30",
						"2013-06-10",
						"",
						42,
						22,
						null
					],
					[
						52,
						"CDISCPILOT01",
						"AE",
						"01-701-1146",
						3,
						"E10",
						"APPLICATION SITE IRRITATION",
						"APPLICATION SITE IRRITATION",
						null,
						"APPLICATION SITE IRRITATION",
						null,
						"HLT_0061",
						null,
						"HLGT_0346",
						null,
						"GENERAL DISORDERS AND ADMINISTRATION SITE CONDITIONS",
						null,
						"GENERAL DISORDERS AND ADMINISTRATION SITE CONDITIONS",
						null,
						"MILD",
						"N",
						"",
						"PROBABLE",
						"RECOVERED/RESOLVED",
						"N",
						"N",
						"N",
						"N",
						"N",
						"N",
						"N",
						"TREATMENT",
						"2013-06-03",
						"2013-06-01",
						"2013-06-02",
						15,
						13,
						14
					],
					[
						53,
						"CDISCPILOT01",
						"AE",
						"01-701-1146",
						11,
						"E16",
						"APPLICATION SITE IRRITATION",
						"APPLICATION SITE BURNING",
						null,
						"APPLICATION SITE IRRITATION",
						null,
						"HLT_0061",
						null,
						"HLGT_0346",
						null,
						"GENERAL DISORDERS AND ADMINISTRATION SITE CONDITIONS",
						null,
						"GENERAL DISORDERS AND ADMINISTRATION SITE CONDITIONS",
						null,
						"MODERATE",
						"N",
						"",
						"PROBABLE",
						"NOT RECOVERED/NOT RESOLVED",
						"N",
						"N",
						"N",
						"N",
						"N",
						"N",
						"N",
						"TREATMENT",
						"2013-06-30",
						"2013-06-26",
						"",
						42,
						38,
						null
					],
					[
						54,
						"CDISCPILOT01",
						"AE",
						"01-701-1146",
						9,
						"E14",
						"APPLICATION SITE PAIN",
						"APPLICATION SITE PAIN",
						null,
						"APPLICATION SITE PAIN",
						null,
						"HLT_0342",
						null,
						"HLGT_0085",
						null,
						"GENERAL DISORDERS AND ADMINISTRATION SITE CONDITIONS",
						null,
						"GENERAL DISORDERS AND ADMINISTRATION SITE CONDITIONS",
						null,
						"MODERATE",
						"N",
						"",
						"PROBABLE",
						"NOT RECOVERED/NOT RESOLVED",
						"N",
						"N",
						"N",
						"N",
						"N",
						"N",
						"N",
						"TREATMENT",
						"2013-06-30",
						"2013-06-22",
						"",
						42,
						34,
						null
					],
					[
						55,
						"CDISCPILOT01",
						"AE",
						"01-701-1146",
						6,
						"E13",
						"APPLICATION SITE PRURITUS",
						"APPLICATION SITE ITCHING",
						null,
						"APPLICATION SITE PRURITUS",
						null,
						"HLT_0317",
						null,
						"HLGT_0338",
						null,
						"GENERAL DISORDERS AND ADMINISTRATION SITE CONDITIONS",
						null,
						"GENERAL DISORDERS AND ADMINISTRATION SITE CONDITIONS",
						null,
						"MILD",
						"N",
						"",
						"PROBABLE",
						"NOT RECOVERED/NOT RESOLVED",
						"N",
						"N",
						"N",
						"N",
						"N",
						"N",
						"N",
						"TREATMENT",
						"2013-06-16",
						"2013-06-10",
						"",
						28,
						22,
						null
					],
					[
						56,
						"CDISCPILOT01",
						"AE",
						"01-701-1146",
						8,
						"E13",
						"APPLICATION SITE PRURITUS",
						"APPLICATION SITE ITCHING",
						null,
						"APPLICATION SITE PRURITUS",
						null,
						"HLT_0317",
						null,
						"HLGT_0338",
						null,
						"GENERAL DISORDERS AND ADMINISTRATION SITE CONDITIONS",
						null,
						"GENERAL DISORDERS AND ADMINISTRATION SITE CONDITIONS",
						null,
						"MODERATE",
						"N",
						"",
						"PROBABLE",
						"NOT RECOVERED/NOT RESOLVED",
						"N",
						"N",
						"N",
						"N",
						"N",
						"N",
						"N",
						"TREATMENT",
						"2013-06-30",
						"2013-06-10",
						"",
						42,
						22,
						null
					],
					[
						57,
						"CDISCPILOT01",
						"AE",
						"01-701-1146",
						10,
						"E15",
						"APPLICATION SITE VESICLES",
						"APPLICATION SITE VESICLES",
						null,
						"APPLICATION SITE VESICLES",
						null,
						"HLT_0180",
						null,
						"HLGT_0576",
						null,
						"GENERAL DISORDERS AND ADMINISTRATION SITE CONDITIONS",
						null,
						"GENERAL DISORDERS AND ADMINISTRATION SITE CONDITIONS",
						null,
						"MODERATE",
						"N",
						"",
						"PROBABLE",
						"NOT RECOVERED/NOT RESOLVED",
						"N",
						"N",
						"N",
						"N",
						"N",
						"N",
						"N",
						"TREATMENT",
						"2013-06-30",
						"2013-06-26",
						"",
						42,
						38,
						null
					],
					[
						58,
						"CDISCPILOT01",
						"AE",
						"01-701-1146",
						4,
						"E11",
						"FATIGUE",
						"FATIGUE",
						null,
						"FATIGUE",
						null,
						"HLT_0043",
						null,
						"HLGT_0181",
						null,
						"GENERAL DISORDERS AND ADMINISTRATION SITE CONDITIONS",
						null,
						"GENERAL DISORDERS AND ADMINISTRATION SITE CONDITIONS",
						null,
						"MILD",
						"N",
						"",
						"POSSIBLE",
						"NOT RECOVERED/NOT RESOLVED",
						"N",
						"N",
						"N",
						"N",
						"N",
						"N",
						"N",
						"TREATMENT",
						"2013-06-03",
						"2013-06-03",
						"",
						15,
						15,
						null
					],
					[
						59,
						"CDISCPILOT01",
						"AE",
						"01-701-1146",
						2,
						"E09",
						"RASH",
						"RASH",
						null,
						"RASH",
						null,
						"HLT_0762",
						null,
						"HLGT_0198",
						null,
						"SKIN AND SUBCUTANEOUS TISSUE DISORDERS",
						null,
						"SKIN AND SUBCUTANEOUS TISSUE DISORDERS",
						null,
						"MILD",
						"N",
						"",
						"NONE",
						"RECOVERED/RESOLVED",
						"N",
						"N",
						"N",
						"N",
						"N",
						"N",
						"N",
						"SCREENING",
						"2013-06-03",
						"2013-05-16",
						"2013-06-02",
						15,
						-4,
						14
					],
					[
						60,
						"CDISCPILOT01",
						"AE",
						"01-701-1148",
						10,
						"E27",
						"ACTINIC KERATOSIS",
						"ACTINIC KERATOSIS",
						null,
						"ACTINIC KERATOSIS",
						null,
						"HLT_0609",
						null,
						"HLGT_0490",
						null,
						"SKIN AND SUBCUTANEOUS TISSUE DISORDERS",
						null,
						"SKIN AND SUBCUTANEOUS TISSUE DISORDERS",
						null,
						"MILD",
						"N",
						"",
						"NONE",
						"NOT RECOVERED/NOT RESOLVED",
						"N",
						"N",
						"N",
						"N",
						"N",
						"N",
						"N",
						"TREATMENT",
						"2014-02-20",
						"2014-02-12",
						"",
						182,
						174,
						null
					],
					[
						61,
						"CDISCPILOT01",
						"AE",
						"01-701-1148",
						1,
						"E20",
						"APPLICATION SITE ERYTHEMA",
						"APPLICATION SITE REDNESS",
						null,
						"APPLICATION SITE ERYTHEMA",
						null,
						"HLT_0617",
						null,
						"HLGT_0152",
						null,
						"GENERAL DISORDERS AND ADMINISTRATION SITE CONDITIONS",
						null,
						"GENERAL DISORDERS AND ADMINISTRATION SITE CONDITIONS",
						null,
						"MILD",
						"N",
						"",
						"PROBABLE",
						"NOT RECOVERED/NOT RESOLVED",
						"N",
						"N",
						"N",
						"N",
						"N",
						"N",
						"N",
						"TREATMENT",
						"2013-09-05",
						"2013-08-25",
						"",
						14,
						3,
						null
					],
					[
						62,
						"CDISCPILOT01",
						"AE",
						"01-701-1148",
						2,
						"E21",
						"APPLICATION SITE PRURITUS",
						"APPLICATION SITE ITCHING",
						null,
						"APPLICATION SITE PRURITUS",
						null,
						"HLT_0317",
						null,
						"HLGT_0338",
						null,
						"GENERAL DISORDERS AND ADMINISTRATION SITE CONDITIONS",
						null,
						"GENERAL DISORDERS AND ADMINISTRATION SITE CONDITIONS",
						null,
						"MILD",
						"N",
						"",
						"PROBABLE",
						"NOT RECOVERED/NOT RESOLVED",
						"N",
						"N",
						"N",
						"N",
						"N",
						"N",
						"N",
						"TREATMENT",
						"2013-09-05",
						"2013-08-25",
						"",
						14,
						3,
						null
					],
					[
						63,
						"CDISCPILOT01",
						"AE",
						"01-701-1148",
						6,
						"E25",
						"CALCULUS URETHRAL",
						"URETHRAL CALCULUS",
						null,
						"CALCULUS URETHRAL",
						null,
						"HLT_0550",
						null,
						"HLGT_0414",
						null,
						"RENAL AND URINARY DISORDERS",
						null,
						"RENAL AND URINARY DISORDERS",
						null,
						"MODERATE",
						"N",
						"",
						"NONE",
						"RECOVERED/RESOLVED",
						"N",
						"N",
						"N",
						"N",
						"N",
						"N",
						"N",
						"TREATMENT",
						"2014-01-10",
						"2013-12-17",
						"2013-12-17",
						141,
						117,
						117
					],
					[
						64,
						"CDISCPILOT01",
						"AE",
						"01-701-1148",
						9,
						"E26",
						"DEPRESSED MOOD",
						"DEPRESSED MOOD",
						null,
						"DEPRESSED MOOD",
						null,
						"HLT_0784",
						null,
						"HLGT_0122",
						null,
						"PSYCHIATRIC DISORDERS",
						null,
						"PSYCHIATRIC DISORDERS",
						null,
						"MODERATE",
						"N",
						"",
						"NONE",
						"NOT RECOVERED/NOT RESOLVED",
						"N",
						"N",
						"N",
						"N",
						"N",
						"N",
						"N",
						"SCREENING",
						"2014-02-08",
						"2013-07-29",
						"",
						170,
						-25,
						null
					],
					[
						65,
						"CDISCPILOT01",
						"AE",
						"01-701-1148",
						8,
						"E03",
						"DYSPEPSIA",
						"INDIGESTION",
						null,
						"DYSPEPSIA",
						null,
						"HLT_0244",
						null,
						"HLGT_0716",
						null,
						"GASTROINTESTINAL DISORDERS",
						null,
						"GASTROINTESTINAL DISORDERS",
						null,
						"MODERATE",
						"N",
						"",
						"NONE",
						"NOT RECOVERED/NOT RESOLVED",
						"N",
						"N",
						"N",
						"N",
						"N",
						"N",
						"N",
						"SCREENING",
						"2014-02-08",
						"2012-02",
						"",
						170,
						null,
						null
					],
					[
						66,
						"CDISCPILOT01",
						"AE",
						"01-701-1148",
						7,
						"E28",
						"EPISTAXIS",
						"NOSE BLEED",
						null,
						"EPISTAXIS",
						null,
						"HLT_0386",
						null,
						"HLGT_0577",
						null,
						"RESPIRATORY, THORACIC AND MEDIASTINAL DISORDERS",
						null,
						"RESPIRATORY, THORACIC AND MEDIASTINAL DISORDERS",
						null,
						"MILD",
						"N",
						"",
						"NONE",
						"RECOVERED/RESOLVED",
						"N",
						"N",
						"N",
						"N",
						"N",
						"N",
						"N",
						"TREATMENT",
						"2014-01-10",
						"2014-01-03",
						"2014-01-03",
						141,
						134,
						134
					],
					[
						67,
						"CDISCPILOT01",
						"AE",
						"01-701-1148",
						5,
						"E24",
						"FLANK PAIN",
						"FLANK PAIN",
						null,
						"FLANK PAIN",
						null,
						"HLT_0484",
						null,
						"HLGT_0543",
						null,
						"MUSCULOSKELETAL AND CONNECTIVE TISSUE DISORDERS",
						null,
						"MUSCULOSKELETAL AND CONNECTIVE TISSUE DISORDERS",
						null,
						"MODERATE",
						"N",
						"",
						"NONE",
						"RECOVERED/RESOLVED",
						"N",
						"N",
						"N",
						"N",
						"N",
						"N",
						"N",
						"TREATMENT",
						"2014-01-10",
						"2013-12-15",
						"2013-12-17",
						141,
						115,
						117
					],
					[
						68,
						"CDISCPILOT01",
						"AE",
						"01-701-1148",
						4,
						"E23",
						"LOWER RESPIRATORY TRACT INFECTION",
						"CHEST COLD",
						null,
						"LOWER RESPIRATORY TRACT INFECTION",
						null,
						"HLT_0052",
						null,
						"HLGT_0217",
						null,
						"INFECTIONS AND INFESTATIONS",
						null,
						"INFECTIONS AND INFESTATIONS",
						null,
						"MODERATE",
						"N",
						"",
						"NONE",
						"RECOVERED/RESOLVED",
						"N",
						"N",
						"N",
						"N",
						"N",
						"N",
						"N",
						"TREATMENT",
						"2013-11-17",
						"2013-10-12",
						"2013-11-10",
						87,
						51,
						80
					],
					[
						69,
						"CDISCPILOT01",
						"AE",
						"01-701-1153",
						2,
						"E06",
						"INCREASED APPETITE",
						"INCREASED APPETITE",
						null,
						"INCREASED APPETITE",
						null,
						"HLT_0566",
						null,
						"HLGT_0769",
						null,
						"METABOLISM AND NUTRITION DISORDERS",
						null,
						"METABOLISM AND NUTRITION DISORDERS",
						null,
						"MILD",
						"N",
						"",
						"POSSIBLE",
						"RECOVERED/RESOLVED",
						"N",
						"N",
						"N",
						"N",
						"N",
						"N",
						"N",
						"TREATMENT",
						"2013-11-18",
						"2013-10-13",
						"2013-11-06",
						57,
						21,
						45
					],
					[
						70,
						"CDISCPILOT01",
						"AE",
						"01-701-1180",
						9,
						"E07",
						"APPLICATION SITE ERYTHEMA",
						"APPLICATION SITE ERYTHEMA",
						null,
						"APPLICATION SITE ERYTHEMA",
						null,
						"HLT_0617",
						null,
						"HLGT_0152",
						null,
						"GENERAL DISORDERS AND ADMINISTRATION SITE CONDITIONS",
						null,
						"GENERAL DISORDERS AND ADMINISTRATION SITE CONDITIONS",
						null,
						"MODERATE",
						"N",
						"",
						"POSSIBLE",
						"NOT RECOVERED/NOT RESOLVED",
						"N",
						"N",
						"N",
						"N",
						"N",
						"N",
						"N",
						"TREATMENT",
						"2013-03-23",
						"2013-03-19",
						"",
						40,
						36,
						null
					],
					[
						71,
						"CDISCPILOT01",
						"AE",
						"01-701-1180",
						8,
						"E06",
						"APPLICATION SITE PRURITUS",
						"APPLICATION SITE ITCHING",
						null,
						"APPLICATION SITE PRURITUS",
						null,
						"HLT_0317",
						null,
						"HLGT_0338",
						null,
						"GENERAL DISORDERS AND ADMINISTRATION SITE CONDITIONS",
						null,
						"GENERAL DISORDERS AND ADMINISTRATION SITE CONDITIONS",
						null,
						"MODERATE",
						"N",
						"",
						"POSSIBLE",
						"NOT RECOVERED/NOT RESOLVED",
						"N",
						"N",
						"N",
						"N",
						"N",
						"N",
						"N",
						"TREATMENT",
						"2013-03-23",
						"2013-03-19",
						"",
						40,
						36,
						null
					],
					[
						72,
						"CDISCPILOT01",
						"AE",
						"01-701-1180",
						7,
						"E05",
						"APPLICATION SITE VESICLES",
						"APPLICATION SITE BLISTER",
						null,
						"APPLICATION SITE VESICLES",
						null,
						"HLT_0180",
						null,
						"HLGT_0576",
						null,
						"GENERAL DISORDERS AND ADMINISTRATION SITE CONDITIONS",
						null,
						"GENERAL DISORDERS AND ADMINISTRATION SITE CONDITIONS",
						null,
						"MODERATE",
						"N",
						"",
						"POSSIBLE",
						"NOT RECOVERED/NOT RESOLVED",
						"N",
						"N",
						"N",
						"N",
						"N",
						"N",
						"N",
						"TREATMENT",
						"2013-03-23",
						"2013-03-19",
						"",
						40,
						36,
						null
					],
					[
						73,
						"CDISCPILOT01",
						"AE",
						"01-701-1180",
						4,
						"E04",
						"HEADACHE",
						"HEADACHE",
						null,
						"HEADACHE",
						null,
						"HLT_0064",
						null,
						"HLGT_0344",
						null,
						"NERVOUS SYSTEM DISORDERS",
						null,
						"NERVOUS SYSTEM DISORDERS",
						null,
						"MODERATE",
						"N",
						"",
						"NONE",
						"NOT RECOVERED/NOT RESOLVED",
						"N",
						"N",
						"N",
						"N",
						"N",
						"N",
						"N",
						"SCREENING",
						"2013-03-11",
						"2002",
						"",
						28,
						null,
						null
					],
					[
						74,
						"CDISCPILOT01",
						"AE",
						"01-701-1180",
						6,
						"E02",
						"MICTURITION URGENCY",
						"URINARY URGENCY",
						null,
						"MICTURITION URGENCY",
						null,
						"HLT_0294",
						null,
						"HLGT_0483",
						null,
						"RENAL AND URINARY DISORDERS",
						null,
						"RENAL AND URINARY DISORDERS",
						null,
						"MILD",
						"N",
						"",
						"POSSIBLE",
						"RECOVERED/RESOLVED",
						"N",
						"N",
						"N",
						"N",
						"N",
						"N",
						"N",
						"TREATMENT",
						"2013-03-23",
						"2013-02-15",
						"2013-03-19",
						40,
						4,
						36
					],
					[
						75,
						"CDISCPILOT01",
						"AE",
						"01-701-1180",
						5,
						"E03",
						"NASOPHARYNGITIS",
						"COLD",
						null,
						"NASOPHARYNGITIS",
						null,
						"HLT_0036",
						null,
						"HLGT_0709",
						null,
						"INFECTIONS AND INFESTATIONS",
						null,
						"INFECTIONS AND INFESTATIONS",
						null,
						"MILD",
						"N",
						"",
						"NONE",
						"RECOVERED/RESOLVED",
						"N",
						"N",
						"N",
						"N",
						"N",
						"N",
						"N",
						"TREATMENT",
						"2013-03-11",
						"2013-03-06",
						"2013-03-07",
						28,
						23,
						24
					],
					[
						76,
						"CDISCPILOT01",
						"AE",
						"01-701-1180",
						2,
						"E01",
						"VOMITING",
						"VOMITING",
						null,
						"VOMITING",
						null,
						"HLT_0016",
						null,
						"HLGT_0350",
						null,
						"GASTROINTESTINAL DISORDERS",
						null,
						"GASTROINTESTINAL DISORDERS",
						null,
						"MILD",
						"N",
						"",
						"NONE",
						"RECOVERED/RESOLVED",
						"N",
						"N",
						"N",
						"N",
						"N",
						"N",
						"N",
						"TREATMENT",
						"2013-02-25",
						"2013-02-12",
						"2013-02-12",
						14,
						1,
						1
					],
					[
						77,
						"CDISCPILOT01",
						"AE",
						"01-701-1181",
						1,
						"E16",
						"AGITATION",
						"AGITATION",
						null,
						"AGITATION",
						null,
						"HLT_0140",
						null,
						"HLGT_0170",
						null,
						"PSYCHIATRIC DISORDERS",
						null,
						"PSYCHIATRIC DISORDERS",
						null,
						"MODERATE",
						"N",
						"",
						"NONE",
						"RECOVERED/RESOLVED",
						"N",
						"N",
						"N",
						"N",
						"N",
						"N",
						"N",
						"TREATMENT",
						"2013-12-12",
						"2013-12-09",
						"2013-12-09",
						8,
						5,
						5
					],
					[
						78,
						"CDISCPILOT01",
						"AE",
						"01-701-1188",
						7,
						"E09",
						"APPLICATION SITE URTICARIA",
						"APPLICATION SITE URTICARIA",
						null,
						"APPLICATION SITE URTICARIA",
						null,
						"HLT_0196",
						null,
						"HLGT_0233",
						null,
						"GENERAL DISORDERS AND ADMINISTRATION SITE CONDITIONS",
						null,
						"GENERAL DISORDERS AND ADMINISTRATION SITE CONDITIONS",
						null,
						"MILD",
						"N",
						"",
						"PROBABLE",
						"NOT RECOVERED/NOT RESOLVED",
						"N",
						"N",
						"N",
						"N",
						"N",
						"N",
						"N",
						"TREATMENT",
						"2013-03-25",
						"2013-03-21",
						"",
						39,
						35,
						null
					],
					[
						79,
						"CDISCPILOT01",
						"AE",
						"01-701-1188",
						1,
						"E04",
						"ERYTHEMA",
						"ERYTHEMA",
						null,
						"ERYTHEMA",
						null,
						"HLT_0284",
						null,
						"HLGT_0192",
						null,
						"SKIN AND SUBCUTANEOUS TISSUE DISORDERS",
						null,
						"SKIN AND SUBCUTANEOUS TISSUE DISORDERS",
						null,
						"MILD",
						"N",
						"",
						"PROBABLE",
						"NOT RECOVERED/NOT RESOLVED",
						"N",
						"N",
						"N",
						"N",
						"N",
						"N",
						"N",
						"TREATMENT",
						"2013-03-02",
						"2013-02-16",
						"",
						16,
						2,
						null
					],
					[
						80,
						"CDISCPILOT01",
						"AE",
						"01-701-1188",
						3,
						"E04",
						"ERYTHEMA",
						"ERYTHEMA",
						null,
						"ERYTHEMA",
						null,
						"HLT_0284",
						null,
						"HLGT_0192",
						null,
						"SKIN AND SUBCUTANEOUS TISSUE DISORDERS",
						null,
						"SKIN AND SUBCUTANEOUS TISSUE DISORDERS",
						null,
						"MODERATE",
						"N",
						"",
						"PROBABLE",
						"NOT RECOVERED/NOT RESOLVED",
						"N",
						"N",
						"N",
						"N",
						"N",
						"N",
						"N",
						"TREATMENT",
						"2013-03-16",
						"2013-02-16",
						"",
						30,
						2,
						null
					],
					[
						81,
						"CDISCPILOT01",
						"AE",
						"01-701-1188",
						2,
						"E05",
						"PRURITUS",
						"ITCHING",
						null,
						"PRURITUS",
						null,
						"HLT_0778",
						null,
						"HLGT_0695",
						null,
						"SKIN AND SUBCUTANEOUS TISSUE DISORDERS",
						null,
						"SKIN AND SUBCUTANEOUS TISSUE DISORDERS",
						null,
						"MILD",
						"N",
						"",
						"PROBABLE",
						"NOT RECOVERED/NOT RESOLVED",
						"N",
						"N",
						"N",
						"N",
						"N",
						"N",
						"N",
						"TREATMENT",
						"2013-03-02",
						"2013-02-16",
						"",
						16,
						2,
						null
					],
					[
						82,
						"CDISCPILOT01",
						"AE",
						"01-701-1188",
						4,
						"E05",
						"PRURITUS",
						"ITCHING",
						null,
						"PRURITUS",
						null,
						"HLT_0778",
						null,
						"HLGT_0695",
						null,
						"SKIN AND SUBCUTANEOUS TISSUE DISORDERS",
						null,
						"SKIN AND SUBCUTANEOUS TISSUE DISORDERS",
						null,
						"MODERATE",
						"N",
						"",
						"PROBABLE",
						"NOT RECOVERED/NOT RESOLVED",
						"N",
						"N",
						"N",
						"N",
						"N",
						"N",
						"N",
						"TREATMENT",
						"2013-03-16",
						"2013-02-16",
						"",
						30,
						2,
						null
					],
					[
						83,
						"CDISCPILOT01",
						"AE",
						"01-701-1188",
						5,
						"E06",
						"URTICARIA",
						"WELTS",
						null,
						"URTICARIA",
						null,
						"HLT_0420",
						null,
						"HLGT_0705",
						null,
						"SKIN AND SUBCUTANEOUS TISSUE DISORDERS",
						null,
						"SKIN AND SUBCUTANEOUS TISSUE DISORDERS",
						null,
						"MILD",
						"N",
						"",
						"PROBABLE",
						"NOT RECOVERED/NOT RESOLVED",
						"N",
						"N",
						"N",
						"N",
						"N",
						"N",
						"N",
						"TREATMENT",
						"2013-03-16",
						"2013-03-04",
						"",
						30,
						18,
						null
					],
					[
						84,
						"CDISCPILOT01",
						"AE",
						"01-701-1188",
						6,
						"E06",
						"URTICARIA",
						"WELTS",
						null,
						"URTICARIA",
						null,
						"HLT_0420",
						null,
						"HLGT_0705",
						null,
						"SKIN AND SUBCUTANEOUS TISSUE DISORDERS",
						null,
						"SKIN AND SUBCUTANEOUS TISSUE DISORDERS",
						null,
						"MODERATE",
						"N",
						"",
						"PROBABLE",
						"NOT RECOVERED/NOT RESOLVED",
						"N",
						"N",
						"N",
						"N",
						"N",
						"N",
						"N",
						"TREATMENT",
						"2013-03-25",
						"2013-03-04",
						"",
						39,
						18,
						null
					],
					[
						85,
						"CDISCPILOT01",
						"AE",
						"01-701-1188",
						8,
						"E10",
						"URTICARIA",
						"WELTS",
						null,
						"URTICARIA",
						null,
						"HLT_0420",
						null,
						"HLGT_0705",
						null,
						"SKIN AND SUBCUTANEOUS TISSUE DISORDERS",
						null,
						"SKIN AND SUBCUTANEOUS TISSUE DISORDERS",
						null,
						"MILD",
						"N",
						"",
						"PROBABLE",
						"NOT RECOVERED/NOT RESOLVED",
						"N",
						"N",
						"N",
						"N",
						"N",
						"N",
						"N",
						"TREATMENT",
						"2013-03-25",
						"2013-03-21",
						"",
						39,
						35,
						null
					],
					[
						86,
						"CDISCPILOT01",
						"AE",
						"01-701-1192",
						13,
						"E13",
						"APPLICATION SITE ERYTHEMA",
						"APPLICATION SITE REDNESS",
						null,
						"APPLICATION SITE ERYTHEMA",
						null,
						"HLT_0617",
						null,
						"HLGT_0152",
						null,
						"GENERAL DISORDERS AND ADMINISTRATION SITE CONDITIONS",
						null,
						"GENERAL DISORDERS AND ADMINISTRATION SITE CONDITIONS",
						null,
						"MILD",
						"N",
						"",
						"PROBABLE",
						"NOT RECOVERED/NOT RESOLVED",
						"N",
						"N",
						"N",
						"N",
						"N",
						"N",
						"N",
						"TREATMENT",
						"2012-12-13",
						"2012-12-05",
						"",
						145,
						137,
						null
					],
					[
						87,
						"CDISCPILOT01",
						"AE",
						"01-701-1192",
						15,
						"E12",
						"APPLICATION SITE IRRITATION",
						"APPLICATION SITE BURNING",
						null,
						"APPLICATION SITE IRRITATION",
						null,
						"HLT_0061",
						null,
						"HLGT_0346",
						null,
						"GENERAL DISORDERS AND ADMINISTRATION SITE CONDITIONS",
						null,
						"GENERAL DISORDERS AND ADMINISTRATION SITE CONDITIONS",
						null,
						"MILD",
						"N",
						"",
						"PROBABLE",
						"RECOVERED/RESOLVED",
						"N",
						"N",
						"N",
						"N",
						"N",
						"N",
						"N",
						"TREATMENT",
						"2013-01-11",
						"2012-12-05",
						"2012-12-16",
						174,
						137,
						148
					],
					[
						88,
						"CDISCPILOT01",
						"AE",
						"01-701-1192",
						14,
						"E14",
						"APPLICATION SITE PRURITUS",
						"APPLICATION SITE ITCHING",
						null,
						"APPLICATION SITE PRURITUS",
						null,
						"HLT_0317",
						null,
						"HLGT_0338",
						null,
						"GENERAL DISORDERS AND ADMINISTRATION SITE CONDITIONS",
						null,
						"GENERAL DISORDERS AND ADMINISTRATION SITE CONDITIONS",
						null,
						"MILD",
						"N",
						"",
						"PROBABLE",
						"NOT RECOVERED/NOT RESOLVED",
						"N",
						"N",
						"N",
						"N",
						"N",
						"N",
						"N",
						"TREATMENT",
						"2012-12-13",
						"2012-12-05",
						"",
						145,
						137,
						null
					],
					[
						89,
						"CDISCPILOT01",
						"AE",
						"01-701-1192",
						4,
						"E01",
						"COUGH",
						"COUGH",
						null,
						"COUGH",
						null,
						"HLT_0701",
						null,
						"HLGT_0280",
						null,
						"RESPIRATORY, THORACIC AND MEDIASTINAL DISORDERS",
						null,
						"RESPIRATORY, THORACIC AND MEDIASTINAL DISORDERS",
						null,
						"MODERATE",
						"N",
						"",
						"NONE",
						"NOT RECOVERED/NOT RESOLVED",
						"N",
						"N",
						"N",
						"N",
						"N",
						"N",
						"N",
						"SCREENING",
						"2012-09-23",
						"2010-06",
						"",
						64,
						null,
						null
					],
					[
						90,
						"CDISCPILOT01",
						"AE",
						"01-701-1192",
						9,
						"E01",
						"COUGH",
						"COUGH",
						null,
						"COUGH",
						null,
						"HLT_0701",
						null,
						"HLGT_0280",
						null,
						"RESPIRATORY, THORACIC AND MEDIASTINAL DISORDERS",
						null,
						"RESPIRATORY, THORACIC AND MEDIASTINAL DISORDERS",
						null,
						"MILD",
						"N",
						"",
						"NONE",
						"NOT RECOVERED/NOT RESOLVED",
						"N",
						"N",
						"N",
						"N",
						"N",
						"N",
						"N",
						"SCREENING",
						"2012-10-14",
						"2010-06",
						"",
						85,
						null,
						null
					],
					[
						91,
						"CDISCPILOT01",
						"AE",
						"01-701-1192",
						6,
						"E09",
						"ERYTHEMA",
						"ERYTHEMA FACIAL",
						null,
						"ERYTHEMA",
						null,
						"HLT_0284",
						null,
						"HLGT_0192",
						null,
						"SKIN AND SUBCUTANEOUS TISSUE DISORDERS",
						null,
						"SKIN AND SUBCUTANEOUS TISSUE DISORDERS",
						null,
						"MILD",
						"N",
						"",
						"NONE",
						"RECOVERED/RESOLVED",
						"N",
						"N",
						"N",
						"N",
						"N",
						"N",
						"N",
						"TREATMENT",
						"2012-09-23",
						"2012-08-07",
						"2012-09-14",
						64,
						17,
						55
					],
					[
						92,
						"CDISCPILOT01",
						"AE",
						"01-701-1192",
						11,
						"E11",
						"MUSCULAR WEAKNESS",
						"MUSCULAR WEAKNESS",
						null,
						"MUSCULAR WEAKNESS",
						null,
						"HLT_0444",
						null,
						"HLGT_0211",
						null,
						"MUSCULOSKELETAL AND CONNECTIVE TISSUE DISORDERS",
						null,
						"MUSCULOSKELETAL AND CONNECTIVE TISSUE DISORDERS",
						null,
						"MODERATE",
						"N",
						"",
						"NONE",
						"RECOVERED/RESOLVED",
						"N",
						"N",
						"N",
						"N",
						"N",
						"N",
						"N",
						"TREATMENT",
						"2012-10-14",
						"2012-09-07",
						"2012-09-30",
						85,
						48,
						71
					],
					[
						93,
						"CDISCPILOT01",
						"AE",
						"01-701-1192",
						1,
						"E06",
						"NASAL MUCOSA BIOPSY",
						"NASAL MUCOSA BIOPSY",
						null,
						"NASAL MUCOSA BIOPSY",
						null,
						"HLT_0680",
						null,
						"HLGT_0396",
						null,
						"INVESTIGATIONS",
						null,
						"INVESTIGATIONS",
						null,
						"MILD",
						"N",
						"",
						"NONE",
						"RECOVERED/RESOLVED",
						"N",
						"N",
						"N",
						"N",
						"N",
						"N",
						"N",
						"TREATMENT",
						"2012-08-07",
						"2012-08-03",
						"2012-08-03",
						17,
						13,
						13
					],
					[
						94,
						"CDISCPILOT01",
						"AE",
						"01-701-1192",
						10,
						"E10",
						"PNEUMONIA",
						"PNEUMONIA",
						null,
						"PNEUMONIA",
						null,
						"HLT_0251",
						null,
						"HLGT_0671",
						null,
						"INFECTIONS AND INFESTATIONS",
						null,
						"INFECTIONS AND INFESTATIONS",
						null,
						"MODERATE",
						"N",
						"",
						"NONE",
						"RECOVERED/RESOLVED",
						"N",
						"N",
						"N",
						"N",
						"Y",
						"N",
						"N",
						"TREATMENT",
						"2012-10-14",
						"2012-09-07",
						"2012-10-06",
						85,
						48,
						77
					],
					[
						95,
						"CDISCPILOT01",
						"AE",
						"01-701-1192",
						5,
						"E08",
						"SECRETION DISCHARGE",
						"SECRETION DISCHARGE",
						null,
						"SECRETION DISCHARGE",
						null,
						"HLT_0683",
						null,
						"HLGT_0575",
						null,
						"GENERAL DISORDERS AND ADMINISTRATION SITE CONDITIONS",
						null,
						"GENERAL DISORDERS AND ADMINISTRATION SITE CONDITIONS",
						null,
						"MILD",
						"N",
						"",
						"NONE",
						"RECOVERED/RESOLVED",
						"N",
						"N",
						"N",
						"N",
						"N",
						"N",
						"N",
						"TREATMENT",
						"2012-09-23",
						"2012-08-07",
						"2012-09-14",
						64,
						17,
						55
					],
					[
						96,
						"CDISCPILOT01",
						"AE",
						"01-701-1203",
						1,
						"E05",
						"EYE LASER SURGERY",
						"EYE LASER SURGERY",
						null,
						"EYE LASER SURGERY",
						null,
						"HLT_0355",
						null,
						"HLGT_0189",
						null,
						"SURGICAL AND MEDICAL PROCEDURES",
						null,
						"SURGICAL AND MEDICAL PROCEDURES",
						null,
						"MILD",
						"N",
						"",
						"NONE",
						"RECOVERED/RESOLVED",
						"N",
						"N",
						"N",
						"N",
						"N",
						"N",
						"N",
						"TREATMENT",
						"2013-03-30",
						"2013-03-21",
						"2013-03-21",
						57,
						48,
						48
					],
					[
						97,
						"CDISCPILOT01",
						"AE",
						"01-701-1211",
						5,
						"E05",
						"APPLICATION SITE ERYTHEMA",
						"APPLICATION SITE REDNESS",
						null,
						"APPLICATION SITE ERYTHEMA",
						null,
						"HLT_0617",
						null,
						"HLGT_0152",
						null,
						"GENERAL DISORDERS AND ADMINISTRATION SITE CONDITIONS",
						null,
						"GENERAL DISORDERS AND ADMINISTRATION SITE CONDITIONS",
						null,
						"MILD",
						"N",
						"",
						"POSSIBLE",
						"NOT RECOVERED/NOT RESOLVED",
						"N",
						"N",
						"N",
						"N",
						"N",
						"N",
						"N",
						"TREATMENT",
						"2012-12-11",
						"2012-11-29",
						"",
						27,
						15,
						null
					],
					[
						98,
						"CDISCPILOT01",
						"AE",
						"01-701-1211",
						1,
						"E08",
						"APPLICATION SITE PRURITUS",
						"APPLICATION SITE ITCHING",
						null,
						"APPLICATION SITE PRURITUS",
						null,
						"HLT_0317",
						null,
						"HLGT_0338",
						null,
						"GENERAL DISORDERS AND ADMINISTRATION SITE CONDITIONS",
						null,
						"GENERAL DISORDERS AND ADMINISTRATION SITE CONDITIONS",
						null,
						"MILD",
						"N",
						"",
						"POSSIBLE",
						"NOT RECOVERED/NOT RESOLVED",
						"N",
						"N",
						"N",
						"N",
						"N",
						"N",
						"N",
						"TREATMENT",
						"2012-11-28",
						"2012-11-16",
						"",
						14,
						2,
						null
					],
					[
						99,
						"CDISCPILOT01",
						"AE",
						"01-701-1211",
						7,
						"E12",
						"CONFUSIONAL STATE",
						"CONFUSION",
						null,
						"CONFUSIONAL STATE",
						null,
						"HLT_0642",
						null,
						"HLGT_0329",
						null,
						"PSYCHIATRIC DISORDERS",
						null,
						"PSYCHIATRIC DISORDERS",
						null,
						"MODERATE",
						"N",
						"",
						"NONE",
						"NOT RECOVERED/NOT RESOLVED",
						"N",
						"N",
						"N",
						"N",
						"N",
						"N",
						"N",
						"TREATMENT",
						"2013-01-14",
						"2013-01-11",
						"",
						61,
						58,
						null
					],
					[
						100,
						"CDISCPILOT01",
						"AE",
						"01-701-1211",
						8,
						"E13",
						"DYSPNOEA",
						"SHORTNESS OF BREATH",
						null,
						"DYSPNOEA",
						null,
						"HLT_0296",
						null,
						"HLGT_0255",
						null,
						"RESPIRATORY, THORACIC AND MEDIASTINAL DISORDERS",
						null,
						"RESPIRATORY, THORACIC AND MEDIASTINAL DISORDERS",
						null,
						"MODERATE",
						"N",
						"",
						"NONE",
						"NOT RECOVERED/NOT RESOLVED",
						"N",
						"N",
						"N",
						"N",
						"N",
						"N",
						"N",
						"TREATMENT",
						"2013-01-14",
						"2013-01-11",
						"",
						61,
						58,
						null
					],
					[
						101,
						"CDISCPILOT01",
						"AE",
						"01-701-1211",
						4,
						"E09",
						"INCONTINENCE",
						"INCONTINENCE",
						null,
						"INCONTINENCE",
						null,
						"HLT_0560",
						null,
						"HLGT_0503",
						null,
						"RENAL AND URINARY DISORDERS",
						null,
						"RENAL AND URINARY DISORDERS",
						null,
						"MILD",
						"N",
						"",
						"NONE",
						"NOT RECOVERED/NOT RESOLVED",
						"N",
						"N",
						"N",
						"N",
						"N",
						"N",
						"N",
						"TREATMENT",
						"2012-11-28",
						"2012-11-22",
						"",
						14,
						8,
						null
					],
					[
						102,
						"CDISCPILOT01",
						"AE",
						"01-701-1211",
						2,
						"E03",
						"JOINT DISLOCATION",
						"SHOULDER DISLOCATION",
						null,
						"JOINT DISLOCATION",
						null,
						"HLT_0035",
						null,
						"HLGT_0227",
						null,
						"INJURY, POISONING AND PROCEDURAL COMPLICATIONS",
						null,
						"INJURY, POISONING AND PROCEDURAL COMPLICATIONS",
						null,
						"MODERATE",
						"N",
						"",
						"NONE",
						"RECOVERED/RESOLVED",
						"N",
						"N",
						"N",
						"N",
						"N",
						"N",
						"N",
						"TREATMENT",
						"2012-11-28",
						"2012-11-21",
						"2012-11-21",
						14,
						7,
						7
					],
					[
						103,
						"CDISCPILOT01",
						"AE",
						"01-701-1211",
						3,
						"E04",
						"SHOULDER PAIN",
						"SHOULDER PAIN",
						null,
						"SHOULDER PAIN",
						null,
						"HLT_0527",
						null,
						"HLGT_0288",
						null,
						"MUSCULOSKELETAL AND CONNECTIVE TISSUE DISORDERS",
						null,
						"MUSCULOSKELETAL AND CONNECTIVE TISSUE DISORDERS",
						null,
						"MILD",
						"N",
						"",
						"NONE",
						"NOT RECOVERED/NOT RESOLVED",
						"N",
						"N",
						"N",
						"N",
						"N",
						"N",
						"N",
						"TREATMENT",
						"2012-11-28",
						"2012-11-21",
						"",
						14,
						7,
						null
					],
					[
						104,
						"CDISCPILOT01",
						"AE",
						"01-701-1211",
						6,
						"E06",
						"SKIN LACERATION",
						"LACERATION OF FACE",
						null,
						"SKIN LACERATION",
						null,
						"HLT_0075",
						null,
						"HLGT_0118",
						null,
						"INJURY, POISONING AND PROCEDURAL COMPLICATIONS",
						null,
						"INJURY, POISONING AND PROCEDURAL COMPLICATIONS",
						null,
						"MILD",
						"N",
						"",
						"NONE",
						"NOT RECOVERED/NOT RESOLVED",
						"N",
						"N",
						"N",
						"N",
						"N",
						"N",
						"N",
						"TREATMENT",
						"2012-12-11",
						"2012-12-09",
						"",
						27,
						25,
						null
					],
					[
						105,
						"CDISCPILOT01",
						"AE",
						"01-701-1211",
						9,
						"E11",
						"SUDDEN DEATH",
						"SUDDEN DEATH",
						null,
						"SUDDEN DEATH",
						null,
						"HLT_0142",
						null,
						"HLGT_0272",
						null,
						"GENERAL DISORDERS AND ADMINISTRATION SITE CONDITIONS",
						null,
						"GENERAL DISORDERS AND ADMINISTRATION SITE CONDITIONS",
						null,
						"SEVERE",
						"N",
						"",
						"NONE",
						"FATAL",
						"N",
						"N",
						"N",
						"Y",
						"N",
						"Y",
						"N",
						"TREATMENT",
						"2013-01-14",
						"2013-01-14",
						"2013-01-14",
						61,
						61,
						61
					],
					[
						106,
						"CDISCPILOT01",
						"AE",
						"01-701-1239",
						5,
						"E13",
						"APPLICATION SITE IRRITATION",
						"APPLICATION SITE IRRITATION",
						null,
						"APPLICATION SITE IRRITATION",
						null,
						"HLT_0061",
						null,
						"HLGT_0346",
						null,
						"GENERAL DISORDERS AND ADMINISTRATION SITE CONDITIONS",
						null,
						"GENERAL DISORDERS AND ADMINISTRATION SITE CONDITIONS",
						null,
						"MILD",
						"N",
						"",
						"PROBABLE",
						"RECOVERED/RESOLVED",
						"N",
						"N",
						"N",
						"N",
						"N",
						"N",
						"N",
						"TREATMENT",
						"2014-02-10",
						"2014-01-20",
						"2014-02-08",
						31,
						10,
						29
					],
					[
						107,
						"CDISCPILOT01",
						"AE",
						"01-701-1239",
						1,
						"E11",
						"ERYTHEMA",
						"ERYTHEMA",
						null,
						"ERYTHEMA",
						null,
						"HLT_0284",
						null,
						"HLGT_0192",
						null,
						"SKIN AND SUBCUTANEOUS TISSUE DISORDERS",
						null,
						"SKIN AND SUBCUTANEOUS TISSUE DISORDERS",
						null,
						"MILD",
						"N",
						"",
						"POSSIBLE",
						"NOT RECOVERED/NOT RESOLVED",
						"N",
						"N",
						"N",
						"N",
						"N",
						"N",
						"N",
						"TREATMENT",
						"2014-01-25",
						"2014-01-12",
						"",
						15,
						2,
						null
					],
					[
						108,
						"CDISCPILOT01",
						"AE",
						"01-701-1239",
						6,
						"E11",
						"ERYTHEMA",
						"ERYTHEMA",
						null,
						"ERYTHEMA",
						null,
						"HLT_0284",
						null,
						"HLGT_0192",
						null,
						"SKIN AND SUBCUTANEOUS TISSUE DISORDERS",
						null,
						"SKIN AND SUBCUTANEOUS TISSUE DISORDERS",
						null,
						"MODERATE",
						"N",
						"",
						"POSSIBLE",
						"NOT RECOVERED/NOT RESOLVED",
						"N",
						"N",
						"N",
						"N",
						"N",
						"N",
						"N",
						"TREATMENT",
						"2014-02-19",
						"2014-01-12",
						"",
						40,
						2,
						null
					],
					[
						109,
						"CDISCPILOT01",
						"AE",
						"01-701-1239",
						9,
						"E16",
						"FATIGUE",
						"FATIGUE",
						null,
						"FATIGUE",
						null,
						"HLT_0043",
						null,
						"HLGT_0181",
						null,
						"GENERAL DISORDERS AND ADMINISTRATION SITE CONDITIONS",
						null,
						"GENERAL DISORDERS AND ADMINISTRATION SITE CONDITIONS",
						null,
						"MILD",
						"N",
						"",
						"REMOTE",
						"NOT RECOVERED/NOT RESOLVED",
						"N",
						"N",
						"N",
						"N",
						"N",
						"N",
						"N",
						"SCREENING",
						"2014-04-02",
						"2014-03",
						"",
						82,
						null,
						null
					],
					[
						110,
						"CDISCPILOT01",
						"AE",
						"01-701-1239",
						10,
						"E17",
						"HORDEOLUM",
						"STYE",
						null,
						"HORDEOLUM",
						null,
						"HLT_0604",
						null,
						"HLGT_0290",
						null,
						"INFECTIONS AND INFESTATIONS",
						null,
						"INFECTIONS AND INFESTATIONS",
						null,
						"MILD",
						"N",
						"",
						"NONE",
						"NOT RECOVERED/NOT RESOLVED",
						"N",
						"N",
						"N",
						"N",
						"N",
						"N",
						"N",
						"SCREENING",
						"2014-05-02",
						"2014-04",
						"",
						112,
						null,
						null
					],
					[
						111,
						"CDISCPILOT01",
						"AE",
						"01-701-1239",
						3,
						"E12",
						"PRURITUS",
						"ITCHING",
						null,
						"PRURITUS",
						null,
						"HLT_0778",
						null,
						"HLGT_0695",
						null,
						"SKIN AND SUBCUTANEOUS TISSUE DISORDERS",
						null,
						"SKIN AND SUBCUTANEOUS TISSUE DISORDERS",
						null,
						"MILD",
						"N",
						"",
						"POSSIBLE",
						"NOT RECOVERED/NOT RESOLVED",
						"N",
						"N",
						"N",
						"N",
						"N",
						"N",
						"N",
						"TREATMENT",
						"2014-01-25",
						"2014-01-13",
						"",
						15,
						3,
						null
					],
					[
						112,
						"CDISCPILOT01",
						"AE",
						"01-701-1239",
						2,
						"E15",
						"SKIN ODOUR ABNORMAL",
						"SKIN ODOR ABNORMAL",
						null,
						"SKIN ODOUR ABNORMAL",
						null,
						"HLT_0510",
						null,
						"HLGT_0184",
						null,
						"SKIN AND SUBCUTANEOUS TISSUE DISORDERS",
						null,
						"SKIN AND SUBCUTANEOUS TISSUE DISORDERS",
						null,
						"MILD",
						"N",
						"",
						"REMOTE",
						"NOT RECOVERED/NOT RESOLVED",
						"N",
						"N",
						"N",
						"N",
						"N",
						"N",
						"N",
						"TREATMENT",
						"2014-01-25",
						"2014-01-12",
						"",
						15,
						2,
						null
					],
					[
						113,
						"CDISCPILOT01",
						"AE",
						"01-701-1239",
						8,
						"E14",
						"UPPER RESPIRATORY TRACT INFECTION",
						"UPPER RESPIRATORY INFECTION",
						null,
						"UPPER RESPIRATORY TRACT INFECTION",
						null,
						"HLT_0520",
						null,
						"HLGT_0489",
						null,
						"INFECTIONS AND INFESTATIONS",
						null,
						"INFECTIONS AND INFESTATIONS",
						null,
						"MILD",
						"N",
						"",
						"NONE",
						"RECOVERED/RESOLVED",
						"N",
						"N",
						"N",
						"N",
						"N",
						"N",
						"N",
						"TREATMENT",
						"2014-04-02",
						"2014-02-20",
						"2014-03-12",
						82,
						41,
						61
					],
					[
						114,
						"CDISCPILOT01",
						"AE",
						"01-701-1275",
						9,
						"E09",
						"COUGH",
						"COUGH",
						null,
						"COUGH",
						null,
						"HLT_0701",
						null,
						"HLGT_0280",
						null,
						"RESPIRATORY, THORACIC AND MEDIASTINAL DISORDERS",
						null,
						"RESPIRATORY, THORACIC AND MEDIASTINAL DISORDERS",
						null,
						"MILD",
						"N",
						"",
						"NONE",
						"RECOVERED/RESOLVED",
						"N",
						"N",
						"N",
						"N",
						"N",
						"N",
						"N",
						"TREATMENT",
						"2014-04-05",
						"2014-03-12",
						"2014-03-27",
						58,
						34,
						49
					],
					[
						115,
						"CDISCPILOT01",
						"AE",
						"01-701-1275",
						12,
						"E06",
						"ERYTHEMA",
						"ERYTHEMA",
						null,
						"ERYTHEMA",
						null,
						"HLT_0284",
						null,
						"HLGT_0192",
						null,
						"SKIN AND SUBCUTANEOUS TISSUE DISORDERS",
						null,
						"SKIN AND SUBCUTANEOUS TISSUE DISORDERS",
						null,
						"MILD",
						"N",
						"",
						"POSSIBLE",
						"RECOVERED/RESOLVED",
						"N",
						"N",
						"N",
						"N",
						"N",
						"N",
						"N",
						"TREATMENT",
						"2014-06-14",
						"2014-02-24",
						"2014-06-12",
						128,
						18,
						126
					],
					[
						116,
						"CDISCPILOT01",
						"AE",
						"01-701-1275",
						10,
						"E10",
						"NASAL CONGESTION",
						"NASAL CONGESTION",
						null,
						"NASAL CONGESTION",
						null,
						"HLT_0118",
						null,
						"HLGT_0549",
						null,
						"RESPIRATORY, THORACIC AND MEDIASTINAL DISORDERS",
						null,
						"RESPIRATORY, THORACIC AND MEDIASTINAL DISORDERS",
						null,
						"MILD",
						"N",
						"",
						"NONE",
						"RECOVERED/RESOLVED",
						"N",
						"N",
						"N",
						"N",
						"N",
						"N",
						"N",
						"TREATMENT",
						"2014-04-05",
						"2014-03-12",
						"2014-03-27",
						58,
						34,
						49
					],
					[
						117,
						"CDISCPILOT01",
						"AE",
						"01-701-1275",
						11,
						"E04",
						"NAUSEA",
						"NAUSEA",
						null,
						"NAUSEA",
						null,
						"HLT_0742",
						null,
						"HLGT_0326",
						null,
						"GASTROINTESTINAL DISORDERS",
						null,
						"GASTROINTESTINAL DISORDERS",
						null,
						"MILD",
						"N",
						"",
						"POSSIBLE",
						"RECOVERED/RESOLVED",
						"N",
						"N",
						"N",
						"N",
						"N",
						"N",
						"N",
						"TREATMENT",
						"2014-06-14",
						"2014-02-13",
						"2014-06-03",
						128,
						7,
						117
					],
					[
						118,
						"CDISCPILOT01",
						"AE",
						"01-701-1275",
						14,
						"E08",
						"PAROSMIA",
						"STRANGE SMELL SENSATION",
						null,
						"PAROSMIA",
						null,
						"HLT_0258",
						null,
						"HLGT_0471",
						null,
						"NERVOUS SYSTEM DISORDERS",
						null,
						"NERVOUS SYSTEM DISORDERS",
						null,
						"MILD",
						"N",
						"",
						"POSSIBLE",
						"RECOVERED/RESOLVED",
						"N",
						"N",
						"N",
						"N",
						"N",
						"N",
						"N",
						"TREATMENT",
						"2014-06-14",
						"2014-02-24",
						"2014-06-03",
						128,
						18,
						117
					],
					[
						119,
						"CDISCPILOT01",
						"AE",
						"01-701-1275",
						15,
						"E11",
						"PRURITUS",
						"ITCHING",
						null,
						"PRURITUS",
						null,
						"HLT_0778",
						null,
						"HLGT_0695",
						null,
						"SKIN AND SUBCUTANEOUS TISSUE DISORDERS",
						null,
						"SKIN AND SUBCUTANEOUS TISSUE DISORDERS",
						null,
						"MILD",
						"N",
						"",
						"POSSIBLE",
						"RECOVERED/RESOLVED",
						"N",
						"N",
						"N",
						"N",
						"N",
						"N",
						"N",
						"TREATMENT",
						"2014-06-14",
						"2014-02-24",
						"2014-06-12",
						128,
						18,
						126
					],
					[
						120,
						"CDISCPILOT01",
						"AE",
						"01-701-1275",
						13,
						"E07",
						"SALIVARY HYPERSECRETION",
						"HYPERSALIVATION",
						null,
						"SALIVARY HYPERSECRETION",
						null,
						"HLT_0374",
						null,
						"HLGT_0488",
						null,
						"GASTROINTESTINAL DISORDERS",
						null,
						"GASTROINTESTINAL DISORDERS",
						null,
						"MILD",
						"N",
						"",
						"POSSIBLE",
						"RECOVERED/RESOLVED",
						"N",
						"N",
						"N",
						"N",
						"N",
						"N",
						"N",
						"TREATMENT",
						"2014-06-14",
						"2014-02-24",
						"2014-06-03",
						128,
						18,
						117
					],
					[
						121,
						"CDISCPILOT01",
						"AE",
						"01-701-1275",
						2,
						"E05",
						"VOMITING",
						"VOMITING",
						null,
						"VOMITING",
						null,
						"HLT_0016",
						null,
						"HLGT_0350",
						null,
						"GASTROINTESTINAL DISORDERS",
						null,
						"GASTROINTESTINAL DISORDERS",
						null,
						"MILD",
						"N",
						"",
						"POSSIBLE",
						"RECOVERED/RESOLVED",
						"N",
						"N",
						"N",
						"N",
						"N",
						"N",
						"N",
						"TREATMENT",
						"2014-03-07",
						"2014-02-23",
						"2014-02-23",
						29,
						17,
						17
					],
					[
						122,
						"CDISCPILOT01",
						"AE",
						"01-701-1287",
						3,
						"E04",
						"APPLICATION SITE ERYTHEMA",
						"APPLICATION SITE REDNESS",
						null,
						"APPLICATION SITE ERYTHEMA",
						null,
						"HLT_0617",
						null,
						"HLGT_0152",
						null,
						"GENERAL DISORDERS AND ADMINISTRATION SITE CONDITIONS",
						null,
						"GENERAL DISORDERS AND ADMINISTRATION SITE CONDITIONS",
						null,
						"MILD",
						"N",
						"",
						"PROBABLE",
						"NOT RECOVERED/NOT RESOLVED",
						"N",
						"N",
						"N",
						"N",
						"N",
						"N",
						"N",
						"TREATMENT",
						"2014-03-21",
						"2014-03-09",
						"",
						56,
						44,
						null
					],
					[
						123,
						"CDISCPILOT01",
						"AE",
						"01-701-1287",
						2,
						"E03",
						"APPLICATION SITE PRURITUS",
						"APPLICATION SITE ITCHING",
						null,
						"APPLICATION SITE PRURITUS",
						null,
						"HLT_0317",
						null,
						"HLGT_0338",
						null,
						"GENERAL DISORDERS AND ADMINISTRATION SITE CONDITIONS",
						null,
						"GENERAL DISORDERS AND ADMINISTRATION SITE CONDITIONS",
						null,
						"MILD",
						"N",
						"",
						"POSSIBLE",
						"NOT RECOVERED/NOT RESOLVED",
						"N",
						"N",
						"N",
						"N",
						"N",
						"N",
						"N",
						"TREATMENT",
						"2014-03-06",
						"2014-02-22",
						"",
						41,
						29,
						null
					],
					[
						124,
						"CDISCPILOT01",
						"AE",
						"01-701-1287",
						5,
						"E05",
						"RHINORRHOEA",
						"RUNNY NOSE",
						null,
						"RHINORRHOEA",
						null,
						"HLT_0635",
						null,
						"HLGT_0460",
						null,
						"RESPIRATORY, THORACIC AND MEDIASTINAL DISORDERS",
						null,
						"RESPIRATORY, THORACIC AND MEDIASTINAL DISORDERS",
						null,
						"MILD",
						"N",
						"",
						"NONE",
						"RECOVERED/RESOLVED",
						"N",
						"N",
						"N",
						"N",
						"N",
						"N",
						"N",
						"TREATMENT",
						"2014-07-26",
						"2014-07-09",
						"2014-07-12",
						183,
						166,
						169
					],
					[
						125,
						"CDISCPILOT01",
						"AE",
						"01-701-1287",
						1,
						"E02",
						"SALIVARY HYPERSECRETION",
						"INCREASED SALIVATION",
						null,
						"SALIVARY HYPERSECRETION",
						null,
						"HLT_0374",
						null,
						"HLGT_0488",
						null,
						"GASTROINTESTINAL DISORDERS",
						null,
						"GASTROINTESTINAL DISORDERS",
						null,
						"MILD",
						"N",
						"",
						"NONE",
						"NOT RECOVERED/NOT RESOLVED",
						"N",
						"N",
						"N",
						"N",
						"N",
						"N",
						"N",
						"TREATMENT",
						"2014-02-11",
						"2014-01-26",
						"",
						18,
						2,
						null
					],
					[
						126,
						"CDISCPILOT01",
						"AE",
						"01-701-1294",
						3,
						"E08",
						"APPLICATION SITE ERYTHEMA",
						"APPLICATION SITE REDNESS",
						null,
						"APPLICATION SITE ERYTHEMA",
						null,
						"HLT_0617",
						null,
						"HLGT_0152",
						null,
						"GENERAL DISORDERS AND ADMINISTRATION SITE CONDITIONS",
						null,
						"GENERAL DISORDERS AND ADMINISTRATION SITE CONDITIONS",
						null,
						"MILD",
						"N",
						"",
						"PROBABLE",
						"NOT RECOVERED/NOT RESOLVED",
						"N",
						"N",
						"N",
						"N",
						"N",
						"N",
						"N",
						"TREATMENT",
						"2013-05-22",
						"2013-05-19",
						"",
						60,
						57,
						null
					],
					[
						127,
						"CDISCPILOT01",
						"AE",
						"01-701-1294",
						5,
						"E08",
						"APPLICATION SITE ERYTHEMA",
						"APPLICATION SITE REDNESS",
						null,
						"APPLICATION SITE ERYTHEMA",
						null,
						"HLT_0617",
						null,
						"HLGT_0152",
						null,
						"GENERAL DISORDERS AND ADMINISTRATION SITE CONDITIONS",
						null,
						"GENERAL DISORDERS AND ADMINISTRATION SITE CONDITIONS",
						null,
						"MODERATE",
						"N",
						"",
						"PROBABLE",
						"NOT RECOVERED/NOT RESOLVED",
						"N",
						"N",
						"N",
						"N",
						"N",
						"N",
						"N",
						"TREATMENT",
						"2013-06-14",
						"2013-05-19",
						"",
						83,
						57,
						null
					],
					[
						128,
						"CDISCPILOT01",
						"AE",
						"01-701-1294",
						1,
						"E06",
						"APPLICATION SITE PRURITUS",
						"APPLICATION SITE ITCHING",
						null,
						"APPLICATION SITE PRURITUS",
						null,
						"HLT_0317",
						null,
						"HLGT_0338",
						null,
						"GENERAL DISORDERS AND ADMINISTRATION SITE CONDITIONS",
						null,
						"GENERAL DISORDERS AND ADMINISTRATION SITE CONDITIONS",
						null,
						"MODERATE",
						"N",
						"",
						"NONE",
						"RECOVERED/RESOLVED",
						"N",
						"N",
						"N",
						"N",
						"N",
						"N",
						"N",
						"SCREENING",
						"2013-03-24",
						"2013-03-22",
						"2013-03-23",
						1,
						-2,
						-1
					],
					[
						129,
						"CDISCPILOT01",
						"AE",
						"01-701-1294",
						2,
						"E07",
						"APPLICATION SITE PRURITUS",
						"APPLICATION SITE ITCHING",
						null,
						"APPLICATION SITE PRURITUS",
						null,
						"HLT_0317",
						null,
						"HLGT_0338",
						null,
						"GENERAL DISORDERS AND ADMINISTRATION SITE CONDITIONS",
						null,
						"GENERAL DISORDERS AND ADMINISTRATION SITE CONDITIONS",
						null,
						"MILD",
						"N",
						"",
						"POSSIBLE",
						"NOT RECOVERED/NOT RESOLVED",
						"N",
						"N",
						"N",
						"N",
						"N",
						"N",
						"N",
						"TREATMENT",
						"2013-05-22",
						"2013-05-19",
						"",
						60,
						57,
						null
					],
					[
						130,
						"CDISCPILOT01",
						"AE",
						"01-701-1294",
						4,
						"E07",
						"APPLICATION SITE PRURITUS",
						"APPLICATION SITE ITCHING",
						null,
						"APPLICATION SITE PRURITUS",
						null,
						"HLT_0317",
						null,
						"HLGT_0338",
						null,
						"GENERAL DISORDERS AND ADMINISTRATION SITE CONDITIONS",
						null,
						"GENERAL DISORDERS AND ADMINISTRATION SITE CONDITIONS",
						null,
						"MODERATE",
						"N",
						"",
						"POSSIBLE",
						"NOT RECOVERED/NOT RESOLVED",
						"N",
						"N",
						"N",
						"N",
						"N",
						"N",
						"N",
						"TREATMENT",
						"2013-06-14",
						"2013-05-19",
						"",
						83,
						57,
						null
					],
					[
						131,
						"CDISCPILOT01",
						"AE",
						"01-701-1294",
						6,
						"E09",
						"RASH ERYTHEMATOUS",
						"ERYTHEMATOUS RASH",
						null,
						"RASH ERYTHEMATOUS",
						null,
						"HLT_0336",
						null,
						"HLGT_0701",
						null,
						"SKIN AND SUBCUTANEOUS TISSUE DISORDERS",
						null,
						"SKIN AND SUBCUTANEOUS TISSUE DISORDERS",
						null,
						"MODERATE",
						"N",
						"",
						"PROBABLE",
						"NOT RECOVERED/NOT RESOLVED",
						"N",
						"N",
						"N",
						"N",
						"N",
						"N",
						"N",
						"TREATMENT",
						"2013-06-14",
						"2013-06-10",
						"",
						83,
						79,
						null
					],
					[
						132,
						"CDISCPILOT01",
						"AE",
						"01-701-1302",
						16,
						"E27",
						"APPLICATION SITE ERYTHEMA",
						"APPLICATION SITE REDNESS",
						null,
						"APPLICATION SITE ERYTHEMA",
						null,
						"HLT_0617",
						null,
						"HLGT_0152",
						null,
						"GENERAL DISORDERS AND ADMINISTRATION SITE CONDITIONS",
						null,
						"GENERAL DISORDERS AND ADMINISTRATION SITE CONDITIONS",
						null,
						"MILD",
						"N",
						"",
						"PROBABLE",
						"NOT RECOVERED/NOT RESOLVED",
						"N",
						"N",
						"N",
						"N",
						"N",
						"N",
						"N",
						"TREATMENT",
						"2013-10-22",
						"2013-10-15",
						"",
						55,
						48,
						null
					],
					[
						133,
						"CDISCPILOT01",
						"AE",
						"01-701-1302",
						1,
						"E21",
						"APPLICATION SITE PERSPIRATION",
						"APPLICATION SITE PERSPIRATION",
						null,
						"APPLICATION SITE PERSPIRATION",
						null,
						"HLT_0283",
						null,
						"HLGT_0403",
						null,
						"GENERAL DISORDERS AND ADMINISTRATION SITE CONDITIONS",
						null,
						"GENERAL DISORDERS AND ADMINISTRATION SITE CONDITIONS",
						null,
						"MILD",
						"N",
						"",
						"POSSIBLE",
						"NOT RECOVERED/NOT RESOLVED",
						"N",
						"N",
						"N",
						"N",
						"N",
						"N",
						"N",
						"TREATMENT",
						"2013-09-15",
						"2013-08-30",
						"",
						18,
						2,
						null
					],
					[
						134,
						"CDISCPILOT01",
						"AE",
						"01-701-1302",
						17,
						"E28",
						"APPLICATION SITE PRURITUS",
						"APPLICATION SITE ITCHING",
						null,
						"APPLICATION SITE PRURITUS",
						null,
						"HLT_0317",
						null,
						"HLGT_0338",
						null,
						"GENERAL DISORDERS AND ADMINISTRATION SITE CONDITIONS",
						null,
						"GENERAL DISORDERS AND ADMINISTRATION SITE CONDITIONS",
						null,
						"MILD",
						"N",
						"",
						"PROBABLE",
						"NOT RECOVERED/NOT RESOLVED",
						"N",
						"N",
						"N",
						"N",
						"N",
						"N",
						"N",
						"TREATMENT",
						"2013-10-22",
						"2013-10-15",
						"",
						55,
						48,
						null
					],
					[
						135,
						"CDISCPILOT01",
						"AE",
						"01-701-1302",
						15,
						"E19",
						"CONTUSION",
						"BRUISE",
						null,
						"CONTUSION",
						null,
						"HLT_0713",
						null,
						"HLGT_0381",
						null,
						"INJURY, POISONING AND PROCEDURAL COMPLICATIONS",
						null,
						"INJURY, POISONING AND PROCEDURAL COMPLICATIONS",
						null,
						"MILD",
						"N",
						"",
						"REMOTE",
						"RECOVERED/RESOLVED",
						"N",
						"N",
						"N",
						"N",
						"N",
						"N",
						"N",
						"TREATMENT",
						"2013-10-22",
						"2013-09-05",
						"2013-10-08",
						55,
						8,
						41
					],
					[
						136,
						"CDISCPILOT01",
						"AE",
						"01-701-1302",
						9,
						"E17",
						"DIZZINESS",
						"DIZZY",
						null,
						"DIZZINESS",
						null,
						"HLT_0619",
						null,
						"HLGT_0751",
						null,
						"NERVOUS SYSTEM DISORDERS",
						null,
						"NERVOUS SYSTEM DISORDERS",
						null,
						"MODERATE",
						"N",
						"",
						"REMOTE",
						"RECOVERED/RESOLVED",
						"N",
						"N",
						"N",
						"N",
						"N",
						"N",
						"N",
						"TREATMENT",
						"2013-09-15",
						"2013-09-02",
						"2013-09-03",
						18,
						5,
						6
					],
					[
						137,
						"CDISCPILOT01",
						"AE",
						"01-701-1302",
						11,
						"E20",
						"DIZZINESS",
						"LIGHTHEADEDNESS",
						null,
						"DIZZINESS",
						null,
						"HLT_0619",
						null,
						"HLGT_0751",
						null,
						"NERVOUS SYSTEM DISORDERS",
						null,
						"NERVOUS SYSTEM DISORDERS",
						null,
						"MILD",
						"N",
						"",
						"POSSIBLE",
						"NOT RECOVERED/NOT RESOLVED",
						"N",
						"N",
						"N",
						"N",
						"N",
						"N",
						"N",
						"TREATMENT",
						"2013-09-15",
						"2013-09-04",
						"",
						18,
						7,
						null
					],
					[
						138,
						"CDISCPILOT01",
						"AE",
						"01-701-1302",
						14,
						"E25",
						"EPISTAXIS",
						"NOSE BLEED",
						null,
						"EPISTAXIS",
						null,
						"HLT_0386",
						null,
						"HLGT_0577",
						null,
						"RESPIRATORY, THORACIC AND MEDIASTINAL DISORDERS",
						null,
						"RESPIRATORY, THORACIC AND MEDIASTINAL DISORDERS",
						null,
						"MILD",
						"N",
						"",
						"REMOTE",
						"NOT RECOVERED/NOT RESOLVED",
						"N",
						"N",
						"N",
						"N",
						"N",
						"N",
						"N",
						"TREATMENT",
						"2013-10-08",
						"2013-09-30",
						"",
						41,
						33,
						null
					],
					[
						139,
						"CDISCPILOT01",
						"AE",
						"01-701-1302",
						21,
						"E31",
						"FEELING ABNORMAL",
						"FOGGY FEELING IN HEAD",
						null,
						"FEELING ABNORMAL",
						null,
						"HLT_0524",
						null,
						"HLGT_0749",
						null,
						"GENERAL DISORDERS AND ADMINISTRATION SITE CONDITIONS",
						null,
						"GENERAL DISORDERS AND ADMINISTRATION SITE CONDITIONS",
						null,
						"MILD",
						"N",
						"",
						"POSSIBLE",
						"NOT RECOVERED/NOT RESOLVED",
						"N",
						"N",
						"N",
						"N",
						"N",
						"N",
						"N",
						"TREATMENT",
						"2013-11-05",
						"2013-10-24",
						"",
						69,
						57,
						null
					],
					[
						140,
						"CDISCPILOT01",
						"AE",
						"01-701-1302",
						13,
						"E23",
						"HEADACHE",
						"HEADACHE",
						null,
						"HEADACHE",
						null,
						"HLT_0064",
						null,
						"HLGT_0344",
						null,
						"NERVOUS SYSTEM DISORDERS",
						null,
						"NERVOUS SYSTEM DISORDERS",
						null,
						"MILD",
						"N",
						"",
						"NONE",
						"NOT RECOVERED/NOT RESOLVED",
						"N",
						"N",
						"N",
						"N",
						"N",
						"N",
						"N",
						"TREATMENT",
						"2013-09-15",
						"2013-09-15",
						"",
						18,
						18,
						null
					],
					[
						141,
						"CDISCPILOT01",
						"AE",
						"01-701-1302",
						2,
						"E24",
						"HYPERHIDROSIS",
						"PERSPIRATION EXCESSIVE",
						null,
						"HYPERHIDROSIS",
						null,
						"HLT_0587",
						null,
						"HLGT_0005",
						null,
						"SKIN AND SUBCUTANEOUS TISSUE DISORDERS",
						null,
						"SKIN AND SUBCUTANEOUS TISSUE DISORDERS",
						null,
						"MILD",
						"N",
						"",
						"POSSIBLE",
						"NOT RECOVERED/NOT RESOLVED",
						"N",
						"N",
						"N",
						"N",
						"N",
						"N",
						"N",
						"TREATMENT",
						"2013-09-15",
						"2013-08-30",
						"",
						18,
						2,
						null
					],
					[
						142,
						"CDISCPILOT01",
						"AE",
						"01-701-1302",
						23,
						"E33",
						"LIBIDO DECREASED",
						"LIBIDO DECREASED",
						null,
						"LIBIDO DECREASED",
						null,
						"HLT_0338",
						null,
						"HLGT_0496",
						null,
						"PSYCHIATRIC DISORDERS",
						null,
						"PSYCHIATRIC DISORDERS",
						null,
						"MILD",
						"N",
						"",
						"POSSIBLE",
						"NOT RECOVERED/NOT RESOLVED",
						"N",
						"N",
						"N",
						"N",
						"N",
						"N",
						"N",
						"TREATMENT",
						"2013-11-05",
						"2013-10-24",
						"",
						69,
						57,
						null
					],
					[
						143,
						"CDISCPILOT01",
						"AE",
						"01-701-1302",
						22,
						"E32",
						"LISTLESS",
						"LISTLESSNESS",
						null,
						"LISTLESS",
						null,
						"HLT_0657",
						null,
						"HLGT_0124",
						null,
						"PSYCHIATRIC DISORDERS",
						null,
						"PSYCHIATRIC DISORDERS",
						null,
						"MILD",
						"N",
						"",
						"POSSIBLE",
						"NOT RECOVERED/NOT RESOLVED",
						"N",
						"N",
						"N",
						"N",
						"N",
						"N",
						"N",
						"TREATMENT",
						"2013-11-05",
						"2013-10-24",
						"",
						69,
						57,
						null
					],
					[
						144,
						"CDISCPILOT01",
						"AE",
						"01-701-1302",
						8,
						"E16",
						"MALAISE",
						"MALAISE",
						null,
						"MALAISE",
						null,
						"HLT_0456",
						null,
						"HLGT_0178",
						null,
						"GENERAL DISORDERS AND ADMINISTRATION SITE CONDITIONS",
						null,
						"GENERAL DISORDERS AND ADMINISTRATION SITE CONDITIONS",
						null,
						"MILD",
						"N",
						"",
						"REMOTE",
						"NOT RECOVERED/NOT RESOLVED",
						"N",
						"N",
						"N",
						"N",
						"N",
						"N",
						"N",
						"TREATMENT",
						"2013-09-15",
						"2013-09-02",
						"",
						18,
						5,
						null
					],
					[
						145,
						"CDISCPILOT01",
						"AE",
						"01-701-1302",
						18,
						"E16",
						"MALAISE",
						"MALAISE",
						null,
						"MALAISE",
						null,
						"HLT_0456",
						null,
						"HLGT_0178",
						null,
						"GENERAL DISORDERS AND ADMINISTRATION SITE CONDITIONS",
						null,
						"GENERAL DISORDERS AND ADMINISTRATION SITE CONDITIONS",
						null,
						"MODERATE",
						"N",
						"",
						"REMOTE",
						"NOT RECOVERED/NOT RESOLVED",
						"N",
						"N",
						"N",
						"N",
						"N",
						"N",
						"N",
						"TREATMENT",
						"2013-11-05",
						"2013-09-02",
						"",
						69,
						5,
						null
					],
					[
						146,
						"CDISCPILOT01",
						"AE",
						"01-701-1302",
						10,
						"E18",
						"MYALGIA",
						"MYALGIA",
						null,
						"MYALGIA",
						null,
						"HLT_0700",
						null,
						"HLGT_0121",
						null,
						"MUSCULOSKELETAL AND CONNECTIVE TISSUE DISORDERS",
						null,
						"MUSCULOSKELETAL AND CONNECTIVE TISSUE DISORDERS",
						null,
						"MILD",
						"N",
						"",
						"POSSIBLE",
						"NOT RECOVERED/NOT RESOLVED",
						"N",
						"N",
						"N",
						"N",
						"N",
						"N",
						"N",
						"TREATMENT",
						"2013-09-15",
						"2013-09-02",
						"",
						18,
						5,
						null
					],
					[
						147,
						"CDISCPILOT01",
						"AE",
						"01-701-1302",
						5,
						"E13",
						"NASAL CONGESTION",
						"NASAL CONGESTION",
						null,
						"NASAL CONGESTION",
						null,
						"HLT_0118",
						null,
						"HLGT_0549",
						null,
						"RESPIRATORY, THORACIC AND MEDIASTINAL DISORDERS",
						null,
						"RESPIRATORY, THORACIC AND MEDIASTINAL DISORDERS",
						null,
						"MILD",
						"N",
						"",
						"NONE",
						"NOT RECOVERED/NOT RESOLVED",
						"N",
						"N",
						"N",
						"N",
						"N",
						"N",
						"N",
						"TREATMENT",
						"2013-09-15",
						"2013-09-01",
						"",
						18,
						4,
						null
					],
					[
						148,
						"CDISCPILOT01",
						"AE",
						"01-701-1302",
						4,
						"E22",
						"PAIN",
						"STINGING",
						null,
						"PAIN",
						null,
						"HLT_0314",
						null,
						"HLGT_0478",
						null,
						"GENERAL DISORDERS AND ADMINISTRATION SITE CONDITIONS",
						null,
						"GENERAL DISORDERS AND ADMINISTRATION SITE CONDITIONS",
						null,
						"MILD",
						"N",
						"",
						"POSSIBLE",
						"NOT RECOVERED/NOT RESOLVED",
						"N",
						"N",
						"N",
						"N",
						"N",
						"N",
						"N",
						"TREATMENT",
						"2013-09-15",
						"2013-08-31",
						"",
						18,
						3,
						null
					],
					[
						149,
						"CDISCPILOT01",
						"AE",
						"01-701-1302",
						6,
						"E14",
						"PHARYNGOLARYNGEAL PAIN",
						"SORE THROAT",
						null,
						"PHARYNGOLARYNGEAL PAIN",
						null,
						"HLT_0130",
						null,
						"HLGT_0402",
						null,
						"RESPIRATORY, THORACIC AND MEDIASTINAL DISORDERS",
						null,
						"RESPIRATORY, THORACIC AND MEDIASTINAL DISORDERS",
						null,
						"MILD",
						"N",
						"",
						"NONE",
						"NOT RECOVERED/NOT RESOLVED",
						"N",
						"N",
						"N",
						"N",
						"N",
						"N",
						"N",
						"TREATMENT",
						"2013-09-15",
						"2013-09-02",
						"",
						18,
						5,
						null
					],
					[
						150,
						"CDISCPILOT01",
						"AE",
						"01-701-1302",
						7,
						"E15",
						"PRODUCTIVE COUGH",
						"PRODUCTIVE COUGH",
						null,
						"PRODUCTIVE COUGH",
						null,
						"HLT_0545",
						null,
						"HLGT_0681",
						null,
						"RESPIRATORY, THORACIC AND MEDIASTINAL DISORDERS",
						null,
						"RESPIRATORY, THORACIC AND MEDIASTINAL DISORDERS",
						null,
						"MILD",
						"N",
						"",
						"NONE",
						"NOT RECOVERED/NOT RESOLVED",
						"N",
						"N",
						"N",
						"N",
						"N",
						"N",
						"N",
						"TREATMENT",
						"2013-09-15",
						"2013-09-02",
						"",
						18,
						5,
						null
					],
					[
						151,
						"CDISCPILOT01",
						"AE",
						"01-701-1302",
						19,
						"E29",
						"RESPIRATORY TRACT CONGESTION",
						"RESPIRATORY TRACT CONGESTION",
						null,
						"RESPIRATORY TRACT CONGESTION",
						null,
						"HLT_0330",
						null,
						"HLGT_0424",
						null,
						"RESPIRATORY, THORACIC AND MEDIASTINAL DISORDERS",
						null,
						"RESPIRATORY, THORACIC AND MEDIASTINAL DISORDERS",
						null,
						"MILD",
						"N",
						"",
						"NONE",
						"NOT RECOVERED/NOT RESOLVED",
						"N",
						"N",
						"N",
						"N",
						"N",
						"N",
						"N",
						"TREATMENT",
						"2013-11-05",
						"2013-10-23",
						"",
						69,
						56,
						null
					],
					[
						152,
						"CDISCPILOT01",
						"AE",
						"01-701-1302",
						20,
						"E30",
						"RHINITIS",
						"CORYZA",
						null,
						"RHINITIS",
						null,
						"HLT_0239",
						null,
						"HLGT_0322",
						null,
						"INFECTIONS AND INFESTATIONS",
						null,
						"INFECTIONS AND INFESTATIONS",
						null,
						"MILD",
						"N",
						"",
						"NONE",
						"NOT RECOVERED/NOT RESOLVED",
						"N",
						"N",
						"N",
						"N",
						"N",
						"N",
						"N",
						"TREATMENT",
						"2013-11-05",
						"2013-10-23",
						"",
						69,
						56,
						null
					],
					[
						153,
						"CDISCPILOT01",
						"AE",
						"01-701-1302",
						3,
						"E26",
						"STOMACH DISCOMFORT",
						"STOMACH UPSET",
						null,
						"STOMACH DISCOMFORT",
						null,
						"HLT_0065",
						null,
						"HLGT_0183",
						null,
						"GASTROINTESTINAL DISORDERS",
						null,
						"GASTROINTESTINAL DISORDERS",
						null,
						"MILD",
						"N",
						"",
						"POSSIBLE",
						"NOT RECOVERED/NOT RESOLVED",
						"N",
						"N",
						"N",
						"N",
						"N",
						"N",
						"N",
						"TREATMENT",
						"2013-09-15",
						"2013-08-30",
						"",
						18,
						2,
						null
					],
					[
						154,
						"CDISCPILOT01",
						"AE",
						"01-701-1317",
						3,
						"E13",
						"APPLICATION SITE ERYTHEMA",
						"APPLICATION SITE REDNESS",
						null,
						"APPLICATION SITE ERYTHEMA",
						null,
						"HLT_0617",
						null,
						"HLGT_0152",
						null,
						"GENERAL DISORDERS AND ADMINISTRATION SITE CONDITIONS",
						null,
						"GENERAL DISORDERS AND ADMINISTRATION SITE CONDITIONS",
						null,
						"MILD",
						"N",
						"",
						"POSSIBLE",
						"NOT RECOVERED/NOT RESOLVED",
						"N",
						"N",
						"N",
						"N",
						"N",
						"N",
						"N",
						"TREATMENT",
						"2014-07-03",
						"2014-06-23",
						"",
						43,
						33,
						null
					],
					[
						155,
						"CDISCPILOT01",
						"AE",
						"01-701-1317",
						4,
						"E14",
						"APPLICATION SITE PRURITUS",
						"APPLICATION SITE ITCHING",
						null,
						"APPLICATION SITE PRURITUS",
						null,
						"HLT_0317",
						null,
						"HLGT_0338",
						null,
						"GENERAL DISORDERS AND ADMINISTRATION SITE CONDITIONS",
						null,
						"GENERAL DISORDERS AND ADMINISTRATION SITE CONDITIONS",
						null,
						"MILD",
						"N",
						"",
						"POSSIBLE",
						"NOT RECOVERED/NOT RESOLVED",
						"N",
						"N",
						"N",
						"N",
						"N",
						"N",
						"N",
						"TREATMENT",
						"2014-07-03",
						"2014-06-23",
						"",
						43,
						33,
						null
					],
					[
						156,
						"CDISCPILOT01",
						"AE",
						"01-701-1317",
						5,
						"E15",
						"APPLICATION SITE URTICARIA",
						"APPLICATION SITE URTICARIA",
						null,
						"APPLICATION SITE URTICARIA",
						null,
						"HLT_0196",
						null,
						"HLGT_0233",
						null,
						"GENERAL DISORDERS AND ADMINISTRATION SITE CONDITIONS",
						null,
						"GENERAL DISORDERS AND ADMINISTRATION SITE CONDITIONS",
						null,
						"MILD",
						"N",
						"",
						"POSSIBLE",
						"NOT RECOVERED/NOT RESOLVED",
						"N",
						"N",
						"N",
						"N",
						"N",
						"N",
						"N",
						"TREATMENT",
						"2014-07-03",
						"2014-06-23",
						"",
						43,
						33,
						null
					],
					[
						157,
						"CDISCPILOT01",
						"AE",
						"01-701-1317",
						2,
						"E12",
						"CYST",
						"CYST",
						null,
						"CYST",
						null,
						"HLT_0763",
						null,
						"HLGT_0341",
						null,
						"GENERAL DISORDERS AND ADMINISTRATION SITE CONDITIONS",
						null,
						"GENERAL DISORDERS AND ADMINISTRATION SITE CONDITIONS",
						null,
						"MILD",
						"N",
						"",
						"NONE",
						"NOT RECOVERED/NOT RESOLVED",
						"N",
						"N",
						"N",
						"N",
						"N",
						"N",
						"N",
						"SCREENING",
						"2014-05-20",
						"2014-05-13",
						"",
						-2,
						-9,
						null
					],
					[
						158,
						"CDISCPILOT01",
						"AE",
						"01-701-1317",
						6,
						"E16",
						"DEPRESSED MOOD",
						"DEPRESSED MOOD",
						null,
						"DEPRESSED MOOD",
						null,
						"HLT_0784",
						null,
						"HLGT_0122",
						null,
						"PSYCHIATRIC DISORDERS",
						null,
						"PSYCHIATRIC DISORDERS",
						null,
						"MILD",
						"N",
						"",
						"POSSIBLE",
						"NOT RECOVERED/NOT RESOLVED",
						"N",
						"N",
						"N",
						"N",
						"N",
						"N",
						"N",
						"TREATMENT",
						"2014-07-22",
						"2014-07-04",
						"",
						62,
						44,
						null
					],
					[
						159,
						"CDISCPILOT01",
						"AE",
						"01-701-1317",
						7,
						"E16",
						"DEPRESSED MOOD",
						"DEPRESSED MOOD",
						null,
						"DEPRESSED MOOD",
						null,
						"HLT_0784",
						null,
						"HLGT_0122",
						null,
						"PSYCHIATRIC DISORDERS",
						null,
						"PSYCHIATRIC DISORDERS",
						null,
						"MODERATE",
						"N",
						"",
						"POSSIBLE",
						"NOT RECOVERED/NOT RESOLVED",
						"N",
						"N",
						"N",
						"N",
						"N",
						"N",
						"N",
						"TREATMENT",
						"2014-10-09",
						"2014-07-04",
						"",
						141,
						44,
						null
					],
					[
						160,
						"CDISCPILOT01",
						"AE",
						"01-701-1317",
						9,
						"E18",
						"DYSPHONIA",
						"HOARSENESS",
						null,
						"DYSPHONIA",
						null,
						"HLT_0073",
						null,
						"HLGT_0274",
						null,
						"RESPIRATORY, THORACIC AND MEDIASTINAL DISORDERS",
						null,
						"RESPIRATORY, THORACIC AND MEDIASTINAL DISORDERS",
						null,
						"MILD",
						"N",
						"",
						"REMOTE",
						"NOT RECOVERED/NOT RESOLVED",
						"N",
						"N",
						"N",
						"N",
						"N",
						"N",
						"N",
						"TREATMENT",
						"2014-11-06",
						"2014-11-03",
						"",
						169,
						166,
						null
					],
					[
						161,
						"CDISCPILOT01",
						"AE",
						"01-701-1317",
						8,
						"E17",
						"FATIGUE",
						"TIREDNESS",
						null,
						"FATIGUE",
						null,
						"HLT_0043",
						null,
						"HLGT_0181",
						null,
						"GENERAL DISORDERS AND ADMINISTRATION SITE CONDITIONS",
						null,
						"GENERAL DISORDERS AND ADMINISTRATION SITE CONDITIONS",
						null,
						"MILD",
						"N",
						"",
						"REMOTE",
						"NOT RECOVERED/NOT RESOLVED",
						"N",
						"N",
						"N",
						"N",
						"N",
						"N",
						"N",
						"TREATMENT",
						"2014-10-09",
						"2014-09-12",
						"",
						141,
						114,
						null
					],
					[
						162,
						"CDISCPILOT01",
						"AE",
						"01-701-1317",
						1,
						"E11",
						"ONYCHOMYCOSIS",
						"ONYCHOMYCOSIS",
						null,
						"ONYCHOMYCOSIS",
						null,
						"HLT_0275",
						null,
						"HLGT_0243",
						null,
						"INFECTIONS AND INFESTATIONS",
						null,
						"INFECTIONS AND INFESTATIONS",
						null,
						"MILD",
						"N",
						"",
						"NONE",
						"NOT RECOVERED/NOT RESOLVED",
						"N",
						"N",
						"N",
						"N",
						"N",
						"N",
						"N",
						"SCREENING",
						"2014-05-20",
						"2014-05-13",
						"",
						-2,
						-9,
						null
					],
					[
						163,
						"CDISCPILOT01",
						"AE",
						"01-701-1324",
						1,
						"E04",
						"APPLICATION SITE ERYTHEMA",
						"APPLICATION SITE ERYTHEMA",
						null,
						"APPLICATION SITE ERYTHEMA",
						null,
						"HLT_0617",
						null,
						"HLGT_0152",
						null,
						"GENERAL DISORDERS AND ADMINISTRATION SITE CONDITIONS",
						null,
						"GENERAL DISORDERS AND ADMINISTRATION SITE CONDITIONS",
						null,
						"MILD",
						"N",
						"",
						"PROBABLE",
						"NOT RECOVERED/NOT RESOLVED",
						"N",
						"N",
						"N",
						"N",
						"N",
						"N",
						"N",
						"TREATMENT",
						"2012-10-30",
						"2012-10-22",
						"",
						29,
						21,
						null
					],
					[
						164,
						"CDISCPILOT01",
						"AE",
						"01-701-1324",
						2,
						"E06",
						"APPLICATION SITE PRURITUS",
						"APPLICATION SITE ITCHING",
						null,
						"APPLICATION SITE PRURITUS",
						null,
						"HLT_0317",
						null,
						"HLGT_0338",
						null,
						"GENERAL DISORDERS AND ADMINISTRATION SITE CONDITIONS",
						null,
						"GENERAL DISORDERS AND ADMINISTRATION SITE CONDITIONS",
						null,
						"MILD",
						"N",
						"",
						"PROBABLE",
						"NOT RECOVERED/NOT RESOLVED",
						"N",
						"N",
						"N",
						"N",
						"N",
						"N",
						"N",
						"TREATMENT",
						"2012-12-25",
						"2012-12-02",
						"",
						85,
						62,
						null
					],
					[
						165,
						"CDISCPILOT01",
						"AE",
						"01-701-1324",
						4,
						"E05",
						"APPLICATION SITE VESICLES",
						"APPLICATION SITE BLISTER",
						null,
						"APPLICATION SITE VESICLES",
						null,
						"HLT_0180",
						null,
						"HLGT_0576",
						null,
						"GENERAL DISORDERS AND ADMINISTRATION SITE CONDITIONS",
						null,
						"GENERAL DISORDERS AND ADMINISTRATION SITE CONDITIONS",
						null,
						"MILD",
						"N",
						"",
						"PROBABLE",
						"RECOVERED/RESOLVED",
						"N",
						"N",
						"N",
						"N",
						"N",
						"N",
						"N",
						"TREATMENT",
						"2013-01-22",
						"2012-12-25",
						"2013-01-16",
						113,
						85,
						107
					],
					[
						166,
						"CDISCPILOT01",
						"AE",
						"01-701-1341",
						2,
						"E10",
						"APPLICATION SITE ERYTHEMA",
						"APPLICATION SITE REDNESS",
						null,
						"APPLICATION SITE ERYTHEMA",
						null,
						"HLT_0617",
						null,
						"HLGT_0152",
						null,
						"GENERAL DISORDERS AND ADMINISTRATION SITE CONDITIONS",
						null,
						"GENERAL DISORDERS AND ADMINISTRATION SITE CONDITIONS",
						null,
						"MODERATE",
						"N",
						"",
						"PROBABLE",
						"NOT RECOVERED/NOT RESOLVED",
						"N",
						"N",
						"N",
						"N",
						"N",
						"N",
						"N",
						"TREATMENT",
						"2013-02-07",
						"2013-01-19",
						"",
						34,
						15,
						null
					],
					[
						167,
						"CDISCPILOT01",
						"AE",
						"01-701-1341",
						4,
						"E12",
						"APPLICATION SITE ERYTHEMA",
						"APPLICATION SITE REDNESS",
						null,
						"APPLICATION SITE ERYTHEMA",
						null,
						"HLT_0617",
						null,
						"HLGT_0152",
						null,
						"GENERAL DISORDERS AND ADMINISTRATION SITE CONDITIONS",
						null,
						"GENERAL DISORDERS AND ADMINISTRATION SITE CONDITIONS",
						null,
						"MODERATE",
						"N",
						"",
						"PROBABLE",
						"NOT RECOVERED/NOT RESOLVED",
						"N",
						"N",
						"N",
						"N",
						"N",
						"N",
						"N",
						"TREATMENT",
						"2013-02-07",
						"2013-01-26",
						"",
						34,
						22,
						null
					],
					[
						168,
						"CDISCPILOT01",
						"AE",
						"01-701-1341",
						5,
						"E13",
						"APPLICATION SITE IRRITATION",
						"APPLICATION SITE BURNING",
						null,
						"APPLICATION SITE IRRITATION",
						null,
						"HLT_0061",
						null,
						"HLGT_0346",
						null,
						"GENERAL DISORDERS AND ADMINISTRATION SITE CONDITIONS",
						null,
						"GENERAL DISORDERS AND ADMINISTRATION SITE CONDITIONS",
						null,
						"MODERATE",
						"N",
						"",
						"PROBABLE",
						"RECOVERED/RESOLVED",
						"N",
						"N",
						"N",
						"N",
						"N",
						"N",
						"N",
						"TREATMENT",
						"2013-02-07",
						"2013-01-26",
						"2013-01-30",
						34,
						22,
						26
					],
					[
						169,
						"CDISCPILOT01",
						"AE",
						"01-701-1341",
						1,
						"E09",
						"APPLICATION SITE PRURITUS",
						"APPLICATION SITE ITCHING",
						null,
						"APPLICATION SITE PRURITUS",
						null,
						"HLT_0317",
						null,
						"HLGT_0338",
						null,
						"GENERAL DISORDERS AND ADMINISTRATION SITE CONDITIONS",
						null,
						"GENERAL DISORDERS AND ADMINISTRATION SITE CONDITIONS",
						null,
						"MODERATE",
						"N",
						"",
						"PROBABLE",
						"NOT RECOVERED/NOT RESOLVED",
						"N",
						"N",
						"N",
						"N",
						"N",
						"N",
						"N",
						"TREATMENT",
						"2013-02-07",
						"2013-01-19",
						"",
						34,
						15,
						null
					],
					[
						170,
						"CDISCPILOT01",
						"AE",
						"01-701-1341",
						3,
						"E11",
						"APPLICATION SITE PRURITUS",
						"APPLICATION SITE ITCHING",
						null,
						"APPLICATION SITE PRURITUS",
						null,
						"HLT_0317",
						null,
						"HLGT_0338",
						null,
						"GENERAL DISORDERS AND ADMINISTRATION SITE CONDITIONS",
						null,
						"GENERAL DISORDERS AND ADMINISTRATION SITE CONDITIONS",
						null,
						"MODERATE",
						"N",
						"",
						"PROBABLE",
						"RECOVERED/RESOLVED",
						"N",
						"N",
						"N",
						"N",
						"N",
						"N",
						"N",
						"TREATMENT",
						"2013-02-07",
						"2013-01-26",
						"2013-01-30",
						34,
						22,
						26
					],
					[
						171,
						"CDISCPILOT01",
						"AE",
						"01-701-1360",
						1,
						"E08",
						"APPLICATION SITE ERYTHEMA",
						"APPLICATION SITE ERYTHEMA",
						null,
						"APPLICATION SITE ERYTHEMA",
						null,
						"HLT_0617",
						null,
						"HLGT_0152",
						null,
						"GENERAL DISORDERS AND ADMINISTRATION SITE CONDITIONS",
						null,
						"GENERAL DISORDERS AND ADMINISTRATION SITE CONDITIONS",
						null,
						"MODERATE",
						"N",
						"",
						"PROBABLE",
						"NOT RECOVERED/NOT RESOLVED",
						"N",
						"N",
						"N",
						"N",
						"N",
						"N",
						"N",
						"TREATMENT",
						"2013-08-14",
						"2013-08-02",
						"",
						15,
						3,
						null
					],
					[
						172,
						"CDISCPILOT01",
						"AE",
						"01-701-1360",
						2,
						"E09",
						"APPLICATION SITE PRURITUS",
						"APPLICATION SITE ITCHING",
						null,
						"APPLICATION SITE PRURITUS",
						null,
						"HLT_0317",
						null,
						"HLGT_0338",
						null,
						"GENERAL DISORDERS AND ADMINISTRATION SITE CONDITIONS",
						null,
						"GENERAL DISORDERS AND ADMINISTRATION SITE CONDITIONS",
						null,
						"MODERATE",
						"N",
						"",
						"PROBABLE",
						"NOT RECOVERED/NOT RESOLVED",
						"N",
						"N",
						"N",
						"N",
						"N",
						"N",
						"N",
						"TREATMENT",
						"2013-08-14",
						"2013-08-02",
						"",
						15,
						3,
						null
					],
					[
						173,
						"CDISCPILOT01",
						"AE",
						"01-701-1360",
						3,
						"E10",
						"APPLICATION SITE VESICLES",
						"APPLICATION SITE BLISTER",
						null,
						"APPLICATION SITE VESICLES",
						null,
						"HLT_0180",
						null,
						"HLGT_0576",
						null,
						"GENERAL DISORDERS AND ADMINISTRATION SITE CONDITIONS",
						null,
						"GENERAL DISORDERS AND ADMINISTRATION SITE CONDITIONS",
						null,
						"MODERATE",
						"N",
						"",
						"PROBABLE",
						"NOT RECOVERED/NOT RESOLVED",
						"N",
						"N",
						"N",
						"N",
						"N",
						"N",
						"N",
						"TREATMENT",
						"2013-08-14",
						"2013-08-05",
						"",
						15,
						6,
						null
					],
					[
						174,
						"CDISCPILOT01",
						"AE",
						"01-701-1363",
						3,
						"E11",
						"APPLICATION SITE PRURITUS",
						"APPLICATION SITE ITCHING",
						null,
						"APPLICATION SITE PRURITUS",
						null,
						"HLT_0317",
						null,
						"HLGT_0338",
						null,
						"GENERAL DISORDERS AND ADMINISTRATION SITE CONDITIONS",
						null,
						"GENERAL DISORDERS AND ADMINISTRATION SITE CONDITIONS",
						null,
						"MILD",
						"N",
						"",
						"PROBABLE",
						"NOT RECOVERED/NOT RESOLVED",
						"N",
						"N",
						"N",
						"N",
						"N",
						"N",
						"N",
						"TREATMENT",
						"2013-07-24",
						"2013-07-16",
						"",
						56,
						48,
						null
					],
					[
						175,
						"CDISCPILOT01",
						"AE",
						"01-701-1363",
						6,
						"E13",
						"BACK PAIN",
						"BACKACHE",
						null,
						"BACK PAIN",
						null,
						"HLT_0115",
						null,
						"HLGT_0508",
						null,
						"MUSCULOSKELETAL AND CONNECTIVE TISSUE DISORDERS",
						null,
						"MUSCULOSKELETAL AND CONNECTIVE TISSUE DISORDERS",
						null,
						"MILD",
						"N",
						"",
						"NONE",
						"RECOVERED/RESOLVED",
						"N",
						"N",
						"N",
						"N",
						"N",
						"N",
						"N",
						"TREATMENT",
						"2013-11-13",
						"2013-10-13",
						"2013-10-15",
						168,
						137,
						139
					],
					[
						176,
						"CDISCPILOT01",
						"AE",
						"01-701-1363",
						2,
						"E03",
						"HEADACHE",
						"HEADACHE",
						null,
						"HEADACHE",
						null,
						"HLT_0064",
						null,
						"HLGT_0344",
						null,
						"NERVOUS SYSTEM DISORDERS",
						null,
						"NERVOUS SYSTEM DISORDERS",
						null,
						"MODERATE",
						"N",
						"",
						"POSSIBLE",
						"NOT RECOVERED/NOT RESOLVED",
						"N",
						"N",
						"N",
						"N",
						"N",
						"N",
						"N",
						"SCREENING",
						"2013-07-24",
						"1986",
						"",
						56,
						null,
						null
					],
					[
						177,
						"CDISCPILOT01",
						"AE",
						"01-701-1363",
						4,
						"E03",
						"HEADACHE",
						"HEADACHE",
						null,
						"HEADACHE",
						null,
						"HLT_0064",
						null,
						"HLGT_0344",
						null,
						"NERVOUS SYSTEM DISORDERS",
						null,
						"NERVOUS SYSTEM DISORDERS",
						null,
						"MILD",
						"N",
						"",
						"POSSIBLE",
						"NOT RECOVERED/NOT RESOLVED",
						"N",
						"N",
						"N",
						"N",
						"N",
						"N",
						"N",
						"SCREENING",
						"2013-10-14",
						"1986",
						"",
						138,
						null,
						null
					],
					[
						178,
						"CDISCPILOT01",
						"AE",
						"01-701-1363",
						1,
						"E09",
						"NAUSEA",
						"NAUSEA",
						null,
						"NAUSEA",
						null,
						"HLT_0742",
						null,
						"HLGT_0326",
						null,
						"GASTROINTESTINAL DISORDERS",
						null,
						"GASTROINTESTINAL DISORDERS",
						null,
						"MILD",
						"N",
						"",
						"REMOTE",
						"RECOVERED/RESOLVED",
						"N",
						"N",
						"N",
						"N",
						"N",
						"N",
						"N",
						"TREATMENT",
						"2013-06-25",
						"2013-06-14",
						"2013-06-15",
						27,
						16,
						17
					],
					[
						179,
						"CDISCPILOT01",
						"AE",
						"01-701-1383",
						3,
						"E06",
						"APPLICATION SITE ERYTHEMA",
						"APPLICATION SITE ERYTHEMA",
						null,
						"APPLICATION SITE ERYTHEMA",
						null,
						"HLT_0617",
						null,
						"HLGT_0152",
						null,
						"GENERAL DISORDERS AND ADMINISTRATION SITE CONDITIONS",
						null,
						"GENERAL DISORDERS AND ADMINISTRATION SITE CONDITIONS",
						null,
						"MILD",
						"N",
						"",
						"POSSIBLE",
						"RECOVERED/RESOLVED",
						"N",
						"N",
						"N",
						"N",
						"N",
						"N",
						"N",
						"TREATMENT",
						"2013-04-02",
						"2013-03-23",
						"2013-03-26",
						58,
						48,
						51
					],
					[
						180,
						"CDISCPILOT01",
						"AE",
						"01-701-1383",
						5,
						"E08",
						"APPLICATION SITE ERYTHEMA",
						"APPLICATION SITE ERYTHEMA",
						null,
						"APPLICATION SITE ERYTHEMA",
						null,
						"HLT_0617",
						null,
						"HLGT_0152",
						null,
						"GENERAL DISORDERS AND ADMINISTRATION SITE CONDITIONS",
						null,
						"GENERAL DISORDERS AND ADMINISTRATION SITE CONDITIONS",
						null,
						"MILD",
						"N",
						"",
						"POSSIBLE",
						"NOT RECOVERED/NOT RESOLVED",
						"N",
						"N",
						"N",
						"N",
						"N",
						"N",
						"N",
						"TREATMENT",
						"2013-04-30",
						"2013-04-12",
						"",
						86,
						68,
						null
					],
					[
						181,
						"CDISCPILOT01",
						"AE",
						"01-701-1383",
						6,
						"E09",
						"APPLICATION SITE IRRITATION",
						"APPLICATION SITE BURNING",
						null,
						"APPLICATION SITE IRRITATION",
						null,
						"HLT_0061",
						null,
						"HLGT_0346",
						null,
						"GENERAL DISORDERS AND ADMINISTRATION SITE CONDITIONS",
						null,
						"GENERAL DISORDERS AND ADMINISTRATION SITE CONDITIONS",
						null,
						"MILD",
						"N",
						"",
						"POSSIBLE",
						"NOT RECOVERED/NOT RESOLVED",
						"N",
						"N",
						"N",
						"N",
						"N",
						"N",
						"N",
						"TREATMENT",
						"2013-04-30",
						"2013-04-12",
						"",
						86,
						68,
						null
					],
					[
						182,
						"CDISCPILOT01",
						"AE",
						"01-701-1383",
						8,
						"E09",
						"APPLICATION SITE IRRITATION",
						"APPLICATION SITE BURNING",
						null,
						"APPLICATION SITE IRRITATION",
						null,
						"HLT_0061",
						null,
						"HLGT_0346",
						null,
						"GENERAL DISORDERS AND ADMINISTRATION SITE CONDITIONS",
						null,
						"GENERAL DISORDERS AND ADMINISTRATION SITE CONDITIONS",
						null,
						"MODERATE",
						"N",
						"",
						"POSSIBLE",
						"NOT RECOVERED/NOT RESOLVED",
						"N",
						"N",
						"N",
						"N",
						"N",
						"N",
						"N",
						"TREATMENT",
						"2013-05-30",
						"2013-04-12",
						"",
						116,
						68,
						null
					],
					[
						183,
						"CDISCPILOT01",
						"AE",
						"01-701-1383",
						2,
						"E05",
						"APPLICATION SITE PAIN",
						"APPLICATION SITE PAIN",
						null,
						"APPLICATION SITE PAIN",
						null,
						"HLT_0342",
						null,
						"HLGT_0085",
						null,
						"GENERAL DISORDERS AND ADMINISTRATION SITE CONDITIONS",
						null,
						"GENERAL DISORDERS AND ADMINISTRATION SITE CONDITIONS",
						null,
						"MILD",
						"N",
						"",
						"PROBABLE",
						"RECOVERED/RESOLVED",
						"N",
						"N",
						"N",
						"N",
						"N",
						"N",
						"N",
						"TREATMENT",
						"2013-02-19",
						"2013-02-07",
						"2013-02-07",
						16,
						4,
						4
					],
					[
						184,
						"CDISCPILOT01",
						"AE",
						"01-701-1383",
						1,
						"E04",
						"APPLICATION SITE PRURITUS",
						"APPLICATION SITE ITCHING",
						null,
						"APPLICATION SITE PRURITUS",
						null,
						"HLT_0317",
						null,
						"HLGT_0338",
						null,
						"GENERAL DISORDERS AND ADMINISTRATION SITE CONDITIONS",
						null,
						"GENERAL DISORDERS AND ADMINISTRATION SITE CONDITIONS",
						null,
						"MILD",
						"N",
						"",
						"PROBABLE",
						"RECOVERED/RESOLVED",
						"N",
						"N",
						"N",
						"N",
						"N",
						"N",
						"N",
						"TREATMENT",
						"2013-02-19",
						"2013-02-07",
						"2013-02-07",
						16,
						4,
						4
					],
					[
						185,
						"CDISCPILOT01",
						"AE",
						"01-701-1383",
						4,
						"E07",
						"APPLICATION SITE PRURITUS",
						"APPLICATION SITE ITCHING",
						null,
						"APPLICATION SITE PRURITUS",
						null,
						"HLT_0317",
						null,
						"HLGT_0338",
						null,
						"GENERAL DISORDERS AND ADMINISTRATION SITE CONDITIONS",
						null,
						"GENERAL DISORDERS AND ADMINISTRATION SITE CONDITIONS",
						null,
						"MILD",
						"N",
						"",
						"POSSIBLE",
						"NOT RECOVERED/NOT RESOLVED",
						"N",
						"N",
						"N",
						"N",
						"N",
						"N",
						"N",
						"TREATMENT",
						"2013-04-02",
						"2013-03-23",
						"",
						58,
						48,
						null
					],
					[
						186,
						"CDISCPILOT01",
						"AE",
						"01-701-1383",
						7,
						"E07",
						"APPLICATION SITE PRURITUS",
						"APPLICATION SITE ITCHING",
						null,
						"APPLICATION SITE PRURITUS",
						null,
						"HLT_0317",
						null,
						"HLGT_0338",
						null,
						"GENERAL DISORDERS AND ADMINISTRATION SITE CONDITIONS",
						null,
						"GENERAL DISORDERS AND ADMINISTRATION SITE CONDITIONS",
						null,
						"MODERATE",
						"N",
						"",
						"POSSIBLE",
						"NOT RECOVERED/NOT RESOLVED",
						"N",
						"N",
						"N",
						"N",
						"N",
						"N",
						"N",
						"TREATMENT",
						"2013-05-30",
						"2013-03-23",
						"",
						116,
						48,
						null
					],
					[
						187,
						"CDISCPILOT01",
						"AE",
						"01-701-1383",
						9,
						"E10",
						"APPLICATION SITE VESICLES",
						"APPLICATION SITE BLISTER",
						null,
						"APPLICATION SITE VESICLES",
						null,
						"HLT_0180",
						null,
						"HLGT_0576",
						null,
						"GENERAL DISORDERS AND ADMINISTRATION SITE CONDITIONS",
						null,
						"GENERAL DISORDERS AND ADMINISTRATION SITE CONDITIONS",
						null,
						"MILD",
						"N",
						"",
						"POSSIBLE",
						"RECOVERED/RESOLVED",
						"N",
						"N",
						"N",
						"N",
						"N",
						"N",
						"N",
						"TREATMENT",
						"2013-05-30",
						"2013-05-07",
						"2013-05-24",
						116,
						93,
						110
					],
					[
						188,
						"CDISCPILOT01",
						"AE",
						"01-701-1383",
						10,
						"E11",
						"CHEST DISCOMFORT",
						"CHEST PRESSURE",
						null,
						"CHEST DISCOMFORT",
						null,
						"HLT_0593",
						null,
						"HLGT_0441",
						null,
						"GENERAL DISORDERS AND ADMINISTRATION SITE CONDITIONS",
						null,
						"GENERAL DISORDERS AND ADMINISTRATION SITE CONDITIONS",
						null,
						"MILD",
						"N",
						"",
						"NONE",
						"RECOVERED/RESOLVED",
						"N",
						"N",
						"N",
						"N",
						"N",
						"N",
						"N",
						"TREATMENT",
						"2013-06-25",
						"2013-06-24",
						"2013-06-24",
						142,
						141,
						141
					],
					[
						189,
						"CDISCPILOT01",
						"AE",
						"01-701-1383",
						12,
						"E13",
						"COUGH",
						"COUGH",
						null,
						"COUGH",
						null,
						"HLT_0701",
						null,
						"HLGT_0280",
						null,
						"RESPIRATORY, THORACIC AND MEDIASTINAL DISORDERS",
						null,
						"RESPIRATORY, THORACIC AND MEDIASTINAL DISORDERS",
						null,
						"MODERATE",
						"N",
						"",
						"NONE",
						"RECOVERED/RESOLVED",
						"N",
						"N",
						"N",
						"N",
						"N",
						"N",
						"N",
						"TREATMENT",
						"2013-07-30",
						"2013-07-17",
						"2013-07-26",
						177,
						164,
						173
					],
					[
						190,
						"CDISCPILOT01",
						"AE",
						"01-701-1383",
						11,
						"E12",
						"HEADACHE",
						"FULLNESS HEAD",
						null,
						"HEADACHE",
						null,
						"HLT_0064",
						null,
						"HLGT_0344",
						null,
						"NERVOUS SYSTEM DISORDERS",
						null,
						"NERVOUS SYSTEM DISORDERS",
						null,
						"MILD",
						"N",
						"",
						"NONE",
						"RECOVERED/RESOLVED",
						"N",
						"N",
						"N",
						"N",
						"N",
						"N",
						"N",
						"TREATMENT",
						"2013-06-25",
						"2013-06-24",
						"2013-06-24",
						142,
						141,
						141
					],
					[
						191,
						"CDISCPILOT01",
						"AE",
						"01-701-1387",
						1,
						"E08",
						"DIARRHOEA",
						"DIARRHEA",
						null,
						"DIARRHOEA",
						null,
						"HLT_0148",
						null,
						"HLGT_0588",
						null,
						"GASTROINTESTINAL DISORDERS",
						null,
						"GASTROINTESTINAL DISORDERS",
						null,
						"MILD",
						"N",
						"",
						"REMOTE",
						"RECOVERED/RESOLVED",
						"N",
						"N",
						"N",
						"N",
						"N",
						"N",
						"N",
						"TREATMENT",
						"2014-03-25",
						"2014-03-18",
						"2014-03-18",
						14,
						7,
						7
					],
					[
						192,
						"CDISCPILOT01",
						"AE",
						"01-701-1387",
						2,
						"E09",
						"HYPERHIDROSIS",
						"SWEATING",
						null,
						"HYPERHIDROSIS",
						null,
						"HLT_0587",
						null,
						"HLGT_0005",
						null,
						"SKIN AND SUBCUTANEOUS TISSUE DISORDERS",
						null,
						"SKIN AND SUBCUTANEOUS TISSUE DISORDERS",
						null,
						"MILD",
						"N",
						"",
						"REMOTE",
						"RECOVERED/RESOLVED",
						"N",
						"N",
						"N",
						"N",
						"N",
						"N",
						"N",
						"TREATMENT",
						"2014-03-25",
						"2014-03-18",
						"2014-03-18",
						14,
						7,
						7
					],
					[
						193,
						"CDISCPILOT01",
						"AE",
						"01-701-1392",
						2,
						"E04",
						"UPPER RESPIRATORY TRACT INFECTION",
						"UPPER RESPIRATORY INFECTION",
						null,
						"UPPER RESPIRATORY TRACT INFECTION",
						null,
						"HLT_0520",
						null,
						"HLGT_0489",
						null,
						"INFECTIONS AND INFESTATIONS",
						null,
						"INFECTIONS AND INFESTATIONS",
						null,
						"MILD",
						"N",
						"",
						"REMOTE",
						"RECOVERED/RESOLVED",
						"N",
						"N",
						"N",
						"N",
						"N",
						"N",
						"N",
						"TREATMENT",
						"2013-04-15",
						"2013-03-16",
						"2013-03-21",
						170,
						140,
						145
					],
					[
						194,
						"CDISCPILOT01",
						"AE",
						"01-701-1415",
						6,
						"E12",
						"DIARRHOEA",
						"DIARRHEA",
						null,
						"DIARRHOEA",
						null,
						"HLT_0148",
						null,
						"HLGT_0588",
						null,
						"GASTROINTESTINAL DISORDERS",
						null,
						"GASTROINTESTINAL DISORDERS",
						null,
						"MILD",
						"N",
						"",
						"NONE",
						"RECOVERED/RESOLVED",
						"N",
						"N",
						"N",
						"N",
						"N",
						"N",
						"N",
						"TREATMENT",
						"2014-03-10",
						"2014-03-09",
						"2014-03-09",
						169,
						168,
						168
					],
					[
						195,
						"CDISCPILOT01",
						"AE",
						"01-701-1415",
						3,
						"E10",
						"MICTURITION URGENCY",
						"URINARY URGENCY",
						null,
						"MICTURITION URGENCY",
						null,
						"HLT_0294",
						null,
						"HLGT_0483",
						null,
						"RENAL AND URINARY DISORDERS",
						null,
						"RENAL AND URINARY DISORDERS",
						null,
						"MILD",
						"N",
						"",
						"NONE",
						"NOT RECOVERED/NOT RESOLVED",
						"N",
						"N",
						"N",
						"N",
						"N",
						"N",
						"N",
						"TREATMENT",
						"2013-12-21",
						"2013-12-02",
						"",
						90,
						71,
						null
					],
					[
						196,
						"CDISCPILOT01",
						"AE",
						"01-701-1415",
						2,
						"E09",
						"UPPER RESPIRATORY TRACT INFECTION",
						"UPPER RESPIRATORY INFECTION",
						null,
						"UPPER RESPIRATORY TRACT INFECTION",
						null,
						"HLT_0520",
						null,
						"HLGT_0489",
						null,
						"INFECTIONS AND INFESTATIONS",
						null,
						"INFECTIONS AND INFESTATIONS",
						null,
						"MILD",
						"N",
						"",
						"NONE",
						"RECOVERED/RESOLVED",
						"N",
						"N",
						"N",
						"N",
						"N",
						"N",
						"N",
						"TREATMENT",
						"2013-11-21",
						"2013-10-21",
						"2013-11-04",
						60,
						29,
						43
					],
					[
						197,
						"CDISCPILOT01",
						"AE",
						"01-701-1415",
						5,
						"E11",
						"UPPER RESPIRATORY TRACT INFECTION",
						"UPPER RESPIRATORY INFECTION",
						null,
						"UPPER RESPIRATORY TRACT INFECTION",
						null,
						"HLT_0520",
						null,
						"HLGT_0489",
						null,
						"INFECTIONS AND INFESTATIONS",
						null,
						"INFECTIONS AND INFESTATIONS",
						null,
						"MILD",
						"N",
						"",
						"REMOTE",
						"RECOVERED/RESOLVED",
						"N",
						"N",
						"N",
						"N",
						"N",
						"N",
						"N",
						"TREATMENT",
						"2014-03-10",
						"2014-01-21",
						"2014-02-10",
						169,
						121,
						141
					],
					[
						198,
						"CDISCPILOT01",
						"AE",
						"01-701-1442",
						1,
						"E03",
						"APPLICATION SITE PRURITUS",
						"APPLICATION SITE ITCHING",
						null,
						"APPLICATION SITE PRURITUS",
						null,
						"HLT_0317",
						null,
						"HLGT_0338",
						null,
						"GENERAL DISORDERS AND ADMINISTRATION SITE CONDITIONS",
						null,
						"GENERAL DISORDERS AND ADMINISTRATION SITE CONDITIONS",
						null,
						"MILD",
						"N",
						"",
						"PROBABLE",
						"NOT RECOVERED/NOT RESOLVED",
						"N",
						"N",
						"N",
						"N",
						"N",
						"N",
						"N",
						"TREATMENT",
						"2014-01-18",
						"2014-01-10",
						"",
						85,
						77,
						null
					],
					[
						199,
						"CDISCPILOT01",
						"AE",
						"01-701-1444",
						1,
						"E11",
						"APPLICATION SITE ERYTHEMA",
						"APPLICATION SITE ERYTHEMA",
						null,
						"APPLICATION SITE ERYTHEMA",
						null,
						"HLT_0617",
						null,
						"HLGT_0152",
						null,
						"GENERAL DISORDERS AND ADMINISTRATION SITE CONDITIONS",
						null,
						"GENERAL DISORDERS AND ADMINISTRATION SITE CONDITIONS",
						null,
						"MILD",
						"N",
						"",
						"POSSIBLE",
						"NOT RECOVERED/NOT RESOLVED",
						"N",
						"N",
						"N",
						"N",
						"N",
						"N",
						"N",
						"TREATMENT",
						"2013-01-31",
						"2013-01-19",
						"",
						27,
						15,
						null
					],
					[
						200,
						"CDISCPILOT01",
						"AE",
						"01-701-1444",
						4,
						"E11",
						"APPLICATION SITE ERYTHEMA",
						"APPLICATION SITE ERYTHEMA",
						null,
						"APPLICATION SITE ERYTHEMA",
						null,
						"HLT_0617",
						null,
						"HLGT_0152",
						null,
						"GENERAL DISORDERS AND ADMINISTRATION SITE CONDITIONS",
						null,
						"GENERAL DISORDERS AND ADMINISTRATION SITE CONDITIONS",
						null,
						"MODERATE",
						"N",
						"",
						"POSSIBLE",
						"NOT RECOVERED/NOT RESOLVED",
						"N",
						"N",
						"N",
						"N",
						"N",
						"N",
						"N",
						"TREATMENT",
						"2013-02-13",
						"2013-01-19",
						"",
						40,
						15,
						null
					],
					[
						201,
						"CDISCPILOT01",
						"AE",
						"01-701-1444",
						6,
						"E15",
						"APPLICATION SITE IRRITATION",
						"APPLICATION SITE BURNING",
						null,
						"APPLICATION SITE IRRITATION",
						null,
						"HLT_0061",
						null,
						"HLGT_0346",
						null,
						"GENERAL DISORDERS AND ADMINISTRATION SITE CONDITIONS",
						null,
						"GENERAL DISORDERS AND ADMINISTRATION SITE CONDITIONS",
						null,
						"MODERATE",
						"N",
						"",
						"PROBABLE",
						"NOT RECOVERED/NOT RESOLVED",
						"N",
						"N",
						"N",
						"N",
						"N",
						"N",
						"N",
						"TREATMENT",
						"2013-02-13",
						"2013-02-04",
						"",
						40,
						31,
						null
					],
					[
						202,
						"CDISCPILOT01",
						"AE",
						"01-701-1444",
						2,
						"E12",
						"APPLICATION SITE PRURITUS",
						"APPLICATION SITE ITCHING",
						null,
						"APPLICATION SITE PRURITUS",
						null,
						"HLT_0317",
						null,
						"HLGT_0338",
						null,
						"GENERAL DISORDERS AND ADMINISTRATION SITE CONDITIONS",
						null,
						"GENERAL DISORDERS AND ADMINISTRATION SITE CONDITIONS",
						null,
						"MILD",
						"N",
						"",
						"PROBABLE",
						"NOT RECOVERED/NOT RESOLVED",
						"N",
						"N",
						"N",
						"N",
						"N",
						"N",
						"N",
						"TREATMENT",
						"2013-01-31",
						"2013-01-19",
						"",
						27,
						15,
						null
					],
					[
						203,
						"CDISCPILOT01",
						"AE",
						"01-701-1444",
						5,
						"E12",
						"APPLICATION SITE PRURITUS",
						"APPLICATION SITE ITCHING",
						null,
						"APPLICATION SITE PRURITUS",
						null,
						"HLT_0317",
						null,
						"HLGT_0338",
						null,
						"GENERAL DISORDERS AND ADMINISTRATION SITE CONDITIONS",
						null,
						"GENERAL DISORDERS AND ADMINISTRATION SITE CONDITIONS",
						null,
						"MODERATE",
						"N",
						"",
						"PROBABLE",
						"NOT RECOVERED/NOT RESOLVED",
						"N",
						"N",
						"N",
						"N",
						"N",
						"N",
						"N",
						"TREATMENT",
						"2013-02-13",
						"2013-01-19",
						"",
						40,
						15,
						null
					],
					[
						204,
						"CDISCPILOT01",
						"AE",
						"01-701-1444",
						7,
						"E16",
						"APPLICATION SITE VESICLES",
						"APPLICATION SITE BLISTER",
						null,
						"APPLICATION SITE VESICLES",
						null,
						"HLT_0180",
						null,
						"HLGT_0576",
						null,
						"GENERAL DISORDERS AND ADMINISTRATION SITE CONDITIONS",
						null,
						"GENERAL DISORDERS AND ADMINISTRATION SITE CONDITIONS",
						null,
						"MODERATE",
						"N",
						"",
						"PROBABLE",
						"NOT RECOVERED/NOT RESOLVED",
						"N",
						"N",
						"N",
						"N",
						"N",
						"N",
						"N",
						"TREATMENT",
						"2013-02-13",
						"2013-02-04",
						"",
						40,
						31,
						null
					],
					[
						205,
						"CDISCPILOT01",
						"AE",
						"01-701-1444",
						8,
						"E14",
						"PARAESTHESIA",
						"TINGLING",
						null,
						"PARAESTHESIA",
						null,
						"HLT_0481",
						null,
						"HLGT_0534",
						null,
						"NERVOUS SYSTEM DISORDERS",
						null,
						"NERVOUS SYSTEM DISORDERS",
						null,
						"MILD",
						"N",
						"",
						"NONE",
						"RECOVERED/RESOLVED",
						"N",
						"N",
						"N",
						"N",
						"N",
						"N",
						"N",
						"TREATMENT",
						"2013-02-13",
						"2013-02-08",
						"2013-02-08",
						40,
						35,
						35
					],
					[
						206,
						"CDISCPILOT01",
						"AE",
						"01-701-1444",
						3,
						"E13",
						"SALIVARY HYPERSECRETION",
						"HYPERSALIVATION",
						null,
						"SALIVARY HYPERSECRETION",
						null,
						"HLT_0374",
						null,
						"HLGT_0488",
						null,
						"GASTROINTESTINAL DISORDERS",
						null,
						"GASTROINTESTINAL DISORDERS",
						null,
						"MILD",
						"N",
						"",
						"POSSIBLE",
						"NOT RECOVERED/NOT RESOLVED",
						"N",
						"N",
						"N",
						"N",
						"N",
						"N",
						"N",
						"TREATMENT",
						"2013-01-31",
						"2013-01-19",
						"",
						27,
						15,
						null
					],
					[
						207,
						"CDISCPILOT01",
						"AE",
						"01-702-1082",
						9,
						"E07",
						"APPLICATION SITE IRRITATION",
						"APPLICATION SITE IRRITATION",
						null,
						"APPLICATION SITE IRRITATION",
						null,
						"HLT_0061",
						null,
						"HLGT_0346",
						null,
						"GENERAL DISORDERS AND ADMINISTRATION SITE CONDITIONS",
						null,
						"GENERAL DISORDERS AND ADMINISTRATION SITE CONDITIONS",
						null,
						"MILD",
						"N",
						"",
						"PROBABLE",
						"RECOVERED/RESOLVED",
						"N",
						"N",
						"N",
						"N",
						"N",
						"N",
						"N",
						"TREATMENT",
						"2013-09-28",
						"2013-09-09",
						"2013-09-24",
						65,
						46,
						61
					],
					[
						208,
						"CDISCPILOT01",
						"AE",
						"01-702-1082",
						6,
						"E03",
						"NEUTROPHIL COUNT INCREASED",
						"NEUTROPHIL COUNT INCREASED",
						null,
						"NEUTROPHIL COUNT INCREASED",
						null,
						"HLT_0326",
						null,
						"HLGT_0625",
						null,
						"INVESTIGATIONS",
						null,
						"INVESTIGATIONS",
						null,
						"MILD",
						"N",
						"",
						"NONE",
						"RECOVERED/RESOLVED",
						"N",
						"N",
						"N",
						"N",
						"N",
						"N",
						"N",
						"SCREENING",
						"2013-08-08",
						"2013-07-07",
						"2013-07-26",
						14,
						-19,
						1
					],
					[
						209,
						"CDISCPILOT01",
						"AE",
						"01-702-1082",
						8,
						"E06",
						"RECTAL HAEMORRHAGE",
						"RECTAL BLEEDING",
						null,
						"RECTAL HAEMORRHAGE",
						null,
						"HLT_0353",
						null,
						"HLGT_0755",
						null,
						"GASTROINTESTINAL DISORDERS",
						null,
						"GASTROINTESTINAL DISORDERS",
						null,
						"MILD",
						"N",
						"",
						"NONE",
						"RECOVERED/RESOLVED",
						"N",
						"N",
						"N",
						"N",
						"N",
						"N",
						"N",
						"TREATMENT",
						"2013-09-28",
						"2013-09-02",
						"2013-09-06",
						65,
						39,
						43
					],
					[
						210,
						"CDISCPILOT01",
						"AE",
						"01-702-1082",
						10,
						"E08",
						"SKIN IRRITATION",
						"SKIN IRRITATION",
						null,
						"SKIN IRRITATION",
						null,
						"HLT_0583",
						null,
						"HLGT_0384",
						null,
						"SKIN AND SUBCUTANEOUS TISSUE DISORDERS",
						null,
						"SKIN AND SUBCUTANEOUS TISSUE DISORDERS",
						null,
						"MODERATE",
						"N",
						"",
						"PROBABLE",
						"RECOVERED/RESOLVED",
						"N",
						"N",
						"N",
						"N",
						"N",
						"N",
						"N",
						"TREATMENT",
						"2013-11-17",
						"2013-10-12",
						"2013-10-31",
						115,
						79,
						98
					],
					[
						211,
						"CDISCPILOT01",
						"AE",
						"01-702-1082",
						4,
						"E04",
						"URINE ANALYSIS ABNORMAL",
						"URINE ANALYSIS ABNORMAL",
						null,
						"URINE ANALYSIS ABNORMAL",
						null,
						"HLT_0783",
						null,
						"HLGT_0295",
						null,
						"INVESTIGATIONS",
						null,
						"INVESTIGATIONS",
						null,
						"MILD",
						"N",
						"",
						"NONE",
						"RECOVERED/RESOLVED",
						"N",
						"N",
						"N",
						"N",
						"N",
						"N",
						"N",
						"SCREENING",
						"2013-07-26",
						"2013-07-07",
						"2013-07-24",
						1,
						-19,
						-2
					],
					[
						212,
						"CDISCPILOT01",
						"AE",
						"01-702-1082",
						5,
						"E02",
						"WHITE BLOOD CELL COUNT INCREASED",
						"WBC INCREASED",
						null,
						"WHITE BLOOD CELL COUNT INCREASED",
						null,
						"HLT_0417",
						null,
						"HLGT_0465",
						null,
						"INVESTIGATIONS",
						null,
						"INVESTIGATIONS",
						null,
						"MILD",
						"N",
						"",
						"NONE",
						"RECOVERED/RESOLVED",
						"N",
						"N",
						"N",
						"N",
						"N",
						"N",
						"N",
						"SCREENING",
						"2013-08-08",
						"2013-07-07",
						"2013-07-26",
						14,
						-19,
						1
					],
					[
						213,
						"CDISCPILOT01",
						"AE",
						"01-703-1042",
						1,
						"E04",
						"DIARRHOEA",
						"DIARRHEA",
						null,
						"DIARRHOEA",
						null,
						"HLT_0148",
						null,
						"HLGT_0588",
						null,
						"GASTROINTESTINAL DISORDERS",
						null,
						"GASTROINTESTINAL DISORDERS",
						null,
						"MILD",
						"N",
						"",
						"POSSIBLE",
						"RECOVERED/RESOLVED",
						"N",
						"N",
						"N",
						"N",
						"N",
						"N",
						"N",
						"TREATMENT",
						"2013-03-14",
						"2013-03-04",
						"2013-03-05",
						13,
						3,
						4
					],
					[
						214,
						"CDISCPILOT01",
						"AE",
						"01-703-1042",
						2,
						"E05",
						"INSOMNIA",
						"INSOMNIA",
						null,
						"INSOMNIA",
						null,
						"HLT_0297",
						null,
						"HLGT_0469",
						null,
						"PSYCHIATRIC DISORDERS",
						null,
						"PSYCHIATRIC DISORDERS",
						null,
						"MILD",
						"N",
						"",
						"REMOTE",
						"RECOVERED/RESOLVED",
						"N",
						"N",
						"N",
						"N",
						"N",
						"N",
						"N",
						"TREATMENT",
						"2013-03-14",
						"2013-03-05",
						"2013-03-06",
						13,
						4,
						5
					],
					[
						215,
						"CDISCPILOT01",
						"AE",
						"01-703-1076",
						5,
						"E09",
						"APPLICATION SITE DERMATITIS",
						"APPLICATION SITE RASH",
						null,
						"APPLICATION SITE DERMATITIS",
						null,
						"HLT_0343",
						null,
						"HLGT_0241",
						null,
						"GENERAL DISORDERS AND ADMINISTRATION SITE CONDITIONS",
						null,
						"GENERAL DISORDERS AND ADMINISTRATION SITE CONDITIONS",
						null,
						"MILD",
						"N",
						"",
						"PROBABLE",
						"NOT RECOVERED/NOT RESOLVED",
						"N",
						"N",
						"N",
						"N",
						"N",
						"N",
						"N",
						"TREATMENT",
						"2013-12-04",
						"2013-11-23",
						"",
						41,
						30,
						null
					],
					[
						216,
						"CDISCPILOT01",
						"AE",
						"01-703-1076",
						4,
						"E08",
						"APPLICATION SITE PRURITUS",
						"APPLICATION SITE ITCHING",
						null,
						"APPLICATION SITE PRURITUS",
						null,
						"HLT_0317",
						null,
						"HLGT_0338",
						null,
						"GENERAL DISORDERS AND ADMINISTRATION SITE CONDITIONS",
						null,
						"GENERAL DISORDERS AND ADMINISTRATION SITE CONDITIONS",
						null,
						"MILD",
						"N",
						"",
						"PROBABLE",
						"NOT RECOVERED/NOT RESOLVED",
						"N",
						"N",
						"N",
						"N",
						"N",
						"N",
						"N",
						"TREATMENT",
						"2013-12-04",
						"2013-11-23",
						"",
						41,
						30,
						null
					],
					[
						217,
						"CDISCPILOT01",
						"AE",
						"01-703-1076",
						7,
						"E08",
						"APPLICATION SITE PRURITUS",
						"APPLICATION SITE ITCHING",
						null,
						"APPLICATION SITE PRURITUS",
						null,
						"HLT_0317",
						null,
						"HLGT_0338",
						null,
						"GENERAL DISORDERS AND ADMINISTRATION SITE CONDITIONS",
						null,
						"GENERAL DISORDERS AND ADMINISTRATION SITE CONDITIONS",
						null,
						"MODERATE",
						"N",
						"",
						"PROBABLE",
						"NOT RECOVERED/NOT RESOLVED",
						"N",
						"N",
						"N",
						"N",
						"N",
						"N",
						"N",
						"TREATMENT",
						"2013-12-17",
						"2013-11-23",
						"",
						54,
						30,
						null
					],
					[
						218,
						"CDISCPILOT01",
						"AE",
						"01-703-1076",
						2,
						"E01",
						"BENIGN PROSTATIC HYPERPLASIA",
						"BENIGN PROSTATIC HYPERTROPHY",
						null,
						"BENIGN PROSTATIC HYPERPLASIA",
						null,
						"HLT_0215",
						null,
						"HLGT_0568",
						null,
						"REPRODUCTIVE SYSTEM AND BREAST DISORDERS",
						null,
						"REPRODUCTIVE SYSTEM AND BREAST DISORDERS",
						null,
						"MODERATE",
						"N",
						"",
						"NONE",
						"NOT RECOVERED/NOT RESOLVED",
						"N",
						"N",
						"N",
						"N",
						"N",
						"N",
						"N",
						"TREATMENT",
						"2013-11-20",
						"2013-11-20",
						"",
						27,
						27,
						null
					],
					[
						219,
						"CDISCPILOT01",
						"AE",
						"01-703-1076",
						1,
						"E02",
						"BIOPSY PROSTATE",
						"BIOPSY OF PROSTATE",
						null,
						"BIOPSY PROSTATE",
						null,
						"HLT_0553",
						null,
						"HLGT_0725",
						null,
						"INVESTIGATIONS",
						null,
						"INVESTIGATIONS",
						null,
						"MODERATE",
						"N",
						"",
						"NONE",
						"RECOVERED/RESOLVED",
						"N",
						"N",
						"N",
						"N",
						"N",
						"N",
						"N",
						"TREATMENT",
						"2013-11-20",
						"2013-11-16",
						"2013-11-16",
						27,
						23,
						23
					],
					[
						220,
						"CDISCPILOT01",
						"AE",
						"01-703-1076",
						3,
						"E05",
						"HYPERCHOLESTEROLAEMIA",
						"HYPERCHOLESTEROLEMIA",
						null,
						"HYPERCHOLESTEROLAEMIA",
						null,
						"HLT_0025",
						null,
						"HLGT_0703",
						null,
						"METABOLISM AND NUTRITION DISORDERS",
						null,
						"METABOLISM AND NUTRITION DISORDERS",
						null,
						"MODERATE",
						"N",
						"",
						"NONE",
						"NOT RECOVERED/NOT RESOLVED",
						"N",
						"N",
						"N",
						"N",
						"N",
						"N",
						"N",
						"SCREENING",
						"2013-12-04",
						"2007",
						"",
						41,
						null,
						null
					],
					[
						221,
						"CDISCPILOT01",
						"AE",
						"01-703-1076",
						6,
						"E07",
						"HYPERHIDROSIS",
						"SWEATING",
						null,
						"HYPERHIDROSIS",
						null,
						"HLT_0587",
						null,
						"HLGT_0005",
						null,
						"SKIN AND SUBCUTANEOUS TISSUE DISORDERS",
						null,
						"SKIN AND SUBCUTANEOUS TISSUE DISORDERS",
						null,
						"MILD",
						"N",
						"",
						"POSSIBLE",
						"NOT RECOVERED/NOT RESOLVED",
						"N",
						"N",
						"N",
						"N",
						"N",
						"N",
						"N",
						"TREATMENT",
						"2013-12-04",
						"2013-11-25",
						"",
						41,
						32,
						null
					],
					[
						222,
						"CDISCPILOT01",
						"AE",
						"01-703-1086",
						2,
						"E01",
						"APPLICATION SITE IRRITATION",
						"APPLICATION SITE IRRITATION",
						null,
						"APPLICATION SITE IRRITATION",
						null,
						"HLT_0061",
						null,
						"HLGT_0346",
						null,
						"GENERAL DISORDERS AND ADMINISTRATION SITE CONDITIONS",
						null,
						"GENERAL DISORDERS AND ADMINISTRATION SITE CONDITIONS",
						null,
						"MODERATE",
						"N",
						"",
						"PROBABLE",
						"NOT RECOVERED/NOT RESOLVED",
						"N",
						"N",
						"N",
						"N",
						"N",
						"N",
						"N",
						"TREATMENT",
						"2012-09-30",
						"2012-09-13",
						"2013-01-02",
						29,
						12,
						123
					],
					[
						223,
						"CDISCPILOT01",
						"AE",
						"01-703-1086",
						3,
						"E01",
						"APPLICATION SITE IRRITATION",
						"APPLICATION SITE IRRITATION",
						null,
						"APPLICATION SITE IRRITATION",
						null,
						"HLT_0061",
						null,
						"HLGT_0346",
						null,
						"GENERAL DISORDERS AND ADMINISTRATION SITE CONDITIONS",
						null,
						"GENERAL DISORDERS AND ADMINISTRATION SITE CONDITIONS",
						null,
						"SEVERE",
						"N",
						"",
						"PROBABLE",
						"NOT RECOVERED/NOT RESOLVED",
						"N",
						"N",
						"N",
						"N",
						"N",
						"N",
						"N",
						"TREATMENT",
						"2012-10-13",
						"2012-09-13",
						"2013-01-02",
						42,
						12,
						123
					],
					[
						224,
						"CDISCPILOT01",
						"AE",
						"01-703-1086",
						6,
						"E01",
						"APPLICATION SITE IRRITATION",
						"APPLICATION SITE IRRITATION",
						null,
						"APPLICATION SITE IRRITATION",
						null,
						"HLT_0061",
						null,
						"HLGT_0346",
						null,
						"GENERAL DISORDERS AND ADMINISTRATION SITE CONDITIONS",
						null,
						"GENERAL DISORDERS AND ADMINISTRATION SITE CONDITIONS",
						null,
						"MILD",
						"N",
						"",
						"PROBABLE",
						"RECOVERED/RESOLVED",
						"N",
						"N",
						"N",
						"N",
						"N",
						"N",
						"N",
						"TREATMENT",
						"2013-03-26",
						"2012-09-13",
						"2013-01-02",
						206,
						12,
						123
					],
					[
						225,
						"CDISCPILOT01",
						"AE",
						"01-703-1086",
						5,
						"E02",
						"CHILLS",
						"CHILLS",
						null,
						"CHILLS",
						null,
						"HLT_0586",
						null,
						"HLGT_0161",
						null,
						"GENERAL DISORDERS AND ADMINISTRATION SITE CONDITIONS",
						null,
						"GENERAL DISORDERS AND ADMINISTRATION SITE CONDITIONS",
						null,
						"MILD",
						"N",
						"",
						"POSSIBLE",
						"RECOVERED/RESOLVED",
						"N",
						"N",
						"N",
						"N",
						"N",
						"N",
						"N",
						"TREATMENT",
						"2012-10-27",
						"2012-10-09",
						"2012-10-15",
						56,
						38,
						44
					],
					[
						226,
						"CDISCPILOT01",
						"AE",
						"01-703-1100",
						1,
						"E04",
						"APPLICATION SITE IRRITATION",
						"APPLICATION SITE IRRITATION",
						null,
						"APPLICATION SITE IRRITATION",
						null,
						"HLT_0061",
						null,
						"HLGT_0346",
						null,
						"GENERAL DISORDERS AND ADMINISTRATION SITE CONDITIONS",
						null,
						"GENERAL DISORDERS AND ADMINISTRATION SITE CONDITIONS",
						null,
						"MODERATE",
						"N",
						"",
						"PROBABLE",
						"NOT RECOVERED/NOT RESOLVED",
						"N",
						"N",
						"N",
						"N",
						"N",
						"N",
						"N",
						"TREATMENT",
						"2013-04-12",
						"2013-04-05",
						"2013-04-16",
						31,
						24,
						35
					],
					[
						227,
						"CDISCPILOT01",
						"AE",
						"01-703-1100",
						3,
						"E04",
						"APPLICATION SITE IRRITATION",
						"APPLICATION SITE IRRITATION",
						null,
						"APPLICATION SITE IRRITATION",
						null,
						"HLT_0061",
						null,
						"HLGT_0346",
						null,
						"GENERAL DISORDERS AND ADMINISTRATION SITE CONDITIONS",
						null,
						"GENERAL DISORDERS AND ADMINISTRATION SITE CONDITIONS",
						null,
						"MILD",
						"N",
						"",
						"PROBABLE",
						"RECOVERED/RESOLVED",
						"N",
						"N",
						"N",
						"N",
						"N",
						"N",
						"N",
						"TREATMENT",
						"2013-04-24",
						"2013-04-05",
						"2013-04-16",
						43,
						24,
						35
					],
					[
						228,
						"CDISCPILOT01",
						"AE",
						"01-703-1100",
						4,
						"E06",
						"CATARACT OPERATION",
						"CATARACT EXTRACTION",
						null,
						"CATARACT OPERATION",
						null,
						"HLT_0432",
						null,
						"HLGT_0058",
						null,
						"SURGICAL AND MEDICAL PROCEDURES",
						null,
						"SURGICAL AND MEDICAL PROCEDURES",
						null,
						"MODERATE",
						"N",
						"",
						"NONE",
						"RECOVERED/RESOLVED",
						"N",
						"N",
						"N",
						"N",
						"N",
						"N",
						"N",
						"TREATMENT",
						"2013-05-08",
						"2013-04-25",
						"2013-04-25",
						57,
						44,
						44
					],
					[
						229,
						"CDISCPILOT01",
						"AE",
						"01-703-1100",
						8,
						"E07",
						"OEDEMA PERIPHERAL",
						"LEG EDEMA",
						null,
						"OEDEMA PERIPHERAL",
						null,
						"HLT_0661",
						null,
						"HLGT_0137",
						null,
						"GENERAL DISORDERS AND ADMINISTRATION SITE CONDITIONS",
						null,
						"GENERAL DISORDERS AND ADMINISTRATION SITE CONDITIONS",
						null,
						"MODERATE",
						"N",
						"",
						"REMOTE",
						"RECOVERED/RESOLVED",
						"N",
						"N",
						"N",
						"N",
						"N",
						"N",
						"N",
						"SCREENING",
						"2013-09-14",
						"2013-02-28",
						"2013-09-14",
						186,
						-13,
						186
					],
					[
						230,
						"CDISCPILOT01",
						"AE",
						"01-703-1100",
						9,
						"E09",
						"OEDEMA PERIPHERAL",
						"LEG EDEMA",
						null,
						"OEDEMA PERIPHERAL",
						null,
						"HLT_0661",
						null,
						"HLGT_0137",
						null,
						"GENERAL DISORDERS AND ADMINISTRATION SITE CONDITIONS",
						null,
						"GENERAL DISORDERS AND ADMINISTRATION SITE CONDITIONS",
						null,
						"MILD",
						"N",
						"",
						"REMOTE",
						"RECOVERED/RESOLVED",
						"N",
						"N",
						"N",
						"N",
						"N",
						"N",
						"N",
						"TREATMENT",
						"2013-09-14",
						"2013-07-17",
						"2013-09-14",
						186,
						127,
						186
					],
					[
						231,
						"CDISCPILOT01",
						"AE",
						"01-703-1100",
						5,
						"E08",
						"UPPER RESPIRATORY TRACT INFECTION",
						"UPPER RESPIRATORY INFECTION",
						null,
						"UPPER RESPIRATORY TRACT INFECTION",
						null,
						"HLT_0520",
						null,
						"HLGT_0489",
						null,
						"INFECTIONS AND INFESTATIONS",
						null,
						"INFECTIONS AND INFESTATIONS",
						null,
						"MODERATE",
						"N",
						"",
						"REMOTE",
						"RECOVERED/RESOLVED",
						"N",
						"N",
						"N",
						"N",
						"N",
						"N",
						"N",
						"TREATMENT",
						"2013-06-05",
						"2013-05-27",
						"2013-06-03",
						85,
						76,
						83
					],
					[
						232,
						"CDISCPILOT01",
						"AE",
						"01-703-1119",
						1,
						"E04",
						"APPLICATION SITE IRRITATION",
						"APPLICATION SITE IRRITATION",
						null,
						"APPLICATION SITE IRRITATION",
						null,
						"HLT_0061",
						null,
						"HLGT_0346",
						null,
						"GENERAL DISORDERS AND ADMINISTRATION SITE CONDITIONS",
						null,
						"GENERAL DISORDERS AND ADMINISTRATION SITE CONDITIONS",
						null,
						"MODERATE",
						"N",
						"",
						"PROBABLE",
						"NOT RECOVERED/NOT RESOLVED",
						"N",
						"N",
						"N",
						"N",
						"N",
						"N",
						"N",
						"TREATMENT",
						"2013-03-21",
						"2013-03-16",
						"",
						30,
						25,
						null
					],
					[
						233,
						"CDISCPILOT01",
						"AE",
						"01-703-1119",
						2,
						"E04",
						"APPLICATION SITE IRRITATION",
						"APPLICATION SITE IRRITATION",
						null,
						"APPLICATION SITE IRRITATION",
						null,
						"HLT_0061",
						null,
						"HLGT_0346",
						null,
						"GENERAL DISORDERS AND ADMINISTRATION SITE CONDITIONS",
						null,
						"GENERAL DISORDERS AND ADMINISTRATION SITE CONDITIONS",
						null,
						"SEVERE",
						"N",
						"",
						"PROBABLE",
						"NOT RECOVERED/NOT RESOLVED",
						"N",
						"N",
						"N",
						"N",
						"N",
						"N",
						"N",
						"TREATMENT",
						"2013-05-17",
						"2013-03-16",
						"",
						87,
						25,
						null
					],
					[
						234,
						"CDISCPILOT01",
						"AE",
						"01-703-1119",
						3,
						"E05",
						"PRURITUS",
						"ITCHING",
						null,
						"PRURITUS",
						null,
						"HLT_0778",
						null,
						"HLGT_0695",
						null,
						"SKIN AND SUBCUTANEOUS TISSUE DISORDERS",
						null,
						"SKIN AND SUBCUTANEOUS TISSUE DISORDERS",
						null,
						"MODERATE",
						"N",
						"",
						"PROBABLE",
						"NOT RECOVERED/NOT RESOLVED",
						"N",
						"N",
						"N",
						"N",
						"N",
						"N",
						"N",
						"TREATMENT",
						"2013-05-17",
						"2013-05-04",
						"",
						87,
						74,
						null
					],
					[
						235,
						"CDISCPILOT01",
						"AE",
						"01-703-1119",
						4,
						"E05",
						"PRURITUS",
						"ITCHING",
						null,
						"PRURITUS",
						null,
						"HLT_0778",
						null,
						"HLGT_0695",
						null,
						"SKIN AND SUBCUTANEOUS TISSUE DISORDERS",
						null,
						"SKIN AND SUBCUTANEOUS TISSUE DISORDERS",
						null,
						"SEVERE",
						"N",
						"",
						"PROBABLE",
						"NOT RECOVERED/NOT RESOLVED",
						"N",
						"N",
						"N",
						"N",
						"N",
						"N",
						"N",
						"TREATMENT",
						"2013-06-13",
						"2013-05-04",
						"",
						114,
						74,
						null
					],
					[
						236,
						"CDISCPILOT01",
						"AE",
						"01-703-1175",
						1,
						"E01",
						"ATRIOVENTRICULAR BLOCK SECOND DEGREE",
						"HEART BLOCK SECOND DEGREE",
						null,
						"ATRIOVENTRICULAR BLOCK SECOND DEGREE",
						null,
						"HLT_0415",
						null,
						"HLGT_0086",
						null,
						"CARDIAC DISORDERS",
						null,
						"CARDIAC DISORDERS",
						null,
						"SEVERE",
						"N",
						"",
						"NONE",
						"NOT RECOVERED/NOT RESOLVED",
						"N",
						"N",
						"N",
						"N",
						"N",
						"N",
						"N",
						"SCREENING",
						"2013-12-18",
						"2013-12-18",
						"",
						-2,
						-2,
						null
					],
					[
						237,
						"CDISCPILOT01",
						"AE",
						"01-703-1182",
						1,
						"E05",
						"APPLICATION SITE ERYTHEMA",
						"APPLICATION SITE REDNESS",
						null,
						"APPLICATION SITE ERYTHEMA",
						null,
						"HLT_0617",
						null,
						"HLGT_0152",
						null,
						"GENERAL DISORDERS AND ADMINISTRATION SITE CONDITIONS",
						null,
						"GENERAL DISORDERS AND ADMINISTRATION SITE CONDITIONS",
						null,
						"MILD",
						"N",
						"",
						"POSSIBLE",
						"NOT RECOVERED/NOT RESOLVED",
						"N",
						"N",
						"N",
						"N",
						"N",
						"N",
						"N",
						"TREATMENT",
						"2013-10-31",
						"2013-10-31",
						"",
						15,
						15,
						null
					],
					[
						238,
						"CDISCPILOT01",
						"AE",
						"01-703-1182",
						2,
						"E05",
						"APPLICATION SITE ERYTHEMA",
						"APPLICATION SITE REDNESS",
						null,
						"APPLICATION SITE ERYTHEMA",
						null,
						"HLT_0617",
						null,
						"HLGT_0152",
						null,
						"GENERAL DISORDERS AND ADMINISTRATION SITE CONDITIONS",
						null,
						"GENERAL DISORDERS AND ADMINISTRATION SITE CONDITIONS",
						null,
						"MODERATE",
						"N",
						"",
						"POSSIBLE",
						"NOT RECOVERED/NOT RESOLVED",
						"N",
						"N",
						"N",
						"N",
						"N",
						"N",
						"N",
						"TREATMENT",
						"2013-11-28",
						"2013-10-31",
						"",
						43,
						15,
						null
					],
					[
						239,
						"CDISCPILOT01",
						"AE",
						"01-703-1182",
						3,
						"E07",
						"SOMNOLENCE",
						"DROWSINESS",
						null,
						"SOMNOLENCE",
						null,
						"HLT_0160",
						null,
						"HLGT_0254",
						null,
						"NERVOUS SYSTEM DISORDERS",
						null,
						"NERVOUS SYSTEM DISORDERS",
						null,
						"MILD",
						"N",
						"",
						"REMOTE",
						"NOT RECOVERED/NOT RESOLVED",
						"N",
						"N",
						"N",
						"N",
						"N",
						"N",
						"N",
						"TREATMENT",
						"2013-11-28",
						"2013-11-22",
						"",
						43,
						37,
						null
					],
					[
						240,
						"CDISCPILOT01",
						"AE",
						"01-703-1182",
						4,
						"E07",
						"SOMNOLENCE",
						"DROWSINESS",
						null,
						"SOMNOLENCE",
						null,
						"HLT_0160",
						null,
						"HLGT_0254",
						null,
						"NERVOUS SYSTEM DISORDERS",
						null,
						"NERVOUS SYSTEM DISORDERS",
						null,
						"MODERATE",
						"N",
						"",
						"REMOTE",
						"NOT RECOVERED/NOT RESOLVED",
						"N",
						"N",
						"N",
						"N",
						"N",
						"N",
						"N",
						"TREATMENT",
						"2013-12-12",
						"2013-11-22",
						"",
						57,
						37,
						null
					],
					[
						241,
						"CDISCPILOT01",
						"AE",
						"01-703-1210",
						2,
						"E04",
						"DECREASED APPETITE",
						"DECREASED APPETITE",
						null,
						"DECREASED APPETITE",
						null,
						"HLT_0574",
						null,
						"HLGT_0231",
						null,
						"METABOLISM AND NUTRITION DISORDERS",
						null,
						"METABOLISM AND NUTRITION DISORDERS",
						null,
						"MILD",
						"N",
						"",
						"POSSIBLE",
						"NOT RECOVERED/NOT RESOLVED",
						"N",
						"N",
						"N",
						"N",
						"N",
						"N",
						"N",
						"TREATMENT",
						"2013-05-10",
						"2013-05-04",
						"",
						56,
						50,
						null
					],
					[
						242,
						"CDISCPILOT01",
						"AE",
						"01-703-1210",
						3,
						"E04",
						"DECREASED APPETITE",
						"DECREASED APPETITE",
						null,
						"DECREASED APPETITE",
						null,
						"HLT_0574",
						null,
						"HLGT_0231",
						null,
						"METABOLISM AND NUTRITION DISORDERS",
						null,
						"METABOLISM AND NUTRITION DISORDERS",
						null,
						"MODERATE",
						"N",
						"",
						"POSSIBLE",
						"NOT RECOVERED/NOT RESOLVED",
						"N",
						"N",
						"N",
						"N",
						"N",
						"N",
						"N",
						"TREATMENT",
						"2013-08-24",
						"2013-05-04",
						"",
						162,
						50,
						null
					],
					[
						243,
						"CDISCPILOT01",
						"AE",
						"01-703-1210",
						1,
						"E01",
						"DISORIENTATION",
						"DISORIENTATION",
						null,
						"DISORIENTATION",
						null,
						"HLT_0299",
						null,
						"HLGT_0307",
						null,
						"PSYCHIATRIC DISORDERS",
						null,
						"PSYCHIATRIC DISORDERS",
						null,
						"MILD",
						"N",
						"",
						"REMOTE",
						"NOT RECOVERED/NOT RESOLVED",
						"N",
						"N",
						"N",
						"N",
						"N",
						"N",
						"N",
						"TREATMENT",
						"2013-04-12",
						"2013-04-02",
						"",
						28,
						18,
						null
					],
					[
						244,
						"CDISCPILOT01",
						"AE",
						"01-703-1258",
						6,
						"E08",
						"APPLICATION SITE DERMATITIS",
						"APPLICATION SITE RASH",
						null,
						"APPLICATION SITE DERMATITIS",
						null,
						"HLT_0343",
						null,
						"HLGT_0241",
						null,
						"GENERAL DISORDERS AND ADMINISTRATION SITE CONDITIONS",
						null,
						"GENERAL DISORDERS AND ADMINISTRATION SITE CONDITIONS",
						null,
						"MODERATE",
						"N",
						"",
						"PROBABLE",
						"NOT RECOVERED/NOT RESOLVED",
						"N",
						"N",
						"N",
						"N",
						"N",
						"N",
						"N",
						"TREATMENT",
						"2012-09-14",
						"2012-09-04",
						"2013-01-25",
						57,
						47,
						190
					],
					[
						245,
						"CDISCPILOT01",
						"AE",
						"01-703-1258",
						7,
						"E08",
						"APPLICATION SITE DERMATITIS",
						"APPLICATION SITE RASH",
						null,
						"APPLICATION SITE DERMATITIS",
						null,
						"HLT_0343",
						null,
						"HLGT_0241",
						null,
						"GENERAL DISORDERS AND ADMINISTRATION SITE CONDITIONS",
						null,
						"GENERAL DISORDERS AND ADMINISTRATION SITE CONDITIONS",
						null,
						"MILD",
						"N",
						"",
						"PROBABLE",
						"RECOVERED/RESOLVED",
						"N",
						"N",
						"N",
						"N",
						"N",
						"N",
						"N",
						"TREATMENT",
						"2013-01-28",
						"2012-09-04",
						"2013-01-25",
						193,
						47,
						190
					],
					[
						246,
						"CDISCPILOT01",
						"AE",
						"01-703-1258",
						2,
						"E06",
						"DIZZINESS",
						"DIZZINESS",
						null,
						"DIZZINESS",
						null,
						"HLT_0619",
						null,
						"HLGT_0751",
						null,
						"NERVOUS SYSTEM DISORDERS",
						null,
						"NERVOUS SYSTEM DISORDERS",
						null,
						"MODERATE",
						"N",
						"",
						"NONE",
						"NOT RECOVERED/NOT RESOLVED",
						"N",
						"N",
						"N",
						"N",
						"N",
						"N",
						"N",
						"SCREENING",
						"2012-09-04",
						"2001",
						"",
						47,
						null,
						null
					],
					[
						247,
						"CDISCPILOT01",
						"AE",
						"01-703-1258",
						5,
						"E06",
						"DIZZINESS",
						"DIZZINESS",
						null,
						"DIZZINESS",
						null,
						"HLT_0619",
						null,
						"HLGT_0751",
						null,
						"NERVOUS SYSTEM DISORDERS",
						null,
						"NERVOUS SYSTEM DISORDERS",
						null,
						"MILD",
						"N",
						"",
						"NONE",
						"NOT RECOVERED/NOT RESOLVED",
						"N",
						"N",
						"N",
						"N",
						"N",
						"N",
						"N",
						"SCREENING",
						"2012-09-14",
						"2001",
						"",
						57,
						null,
						null
					],
					[
						248,
						"CDISCPILOT01",
						"AE",
						"01-703-1258",
						3,
						"E07",
						"UPPER RESPIRATORY TRACT INFECTION",
						"UPPER RESPIRATORY INFECTION",
						null,
						"UPPER RESPIRATORY TRACT INFECTION",
						null,
						"HLT_0520",
						null,
						"HLGT_0489",
						null,
						"INFECTIONS AND INFESTATIONS",
						null,
						"INFECTIONS AND INFESTATIONS",
						null,
						"MILD",
						"N",
						"",
						"NONE",
						"RECOVERED/RESOLVED",
						"N",
						"N",
						"N",
						"N",
						"N",
						"N",
						"N",
						"TREATMENT",
						"2012-09-04",
						"2012-08-11",
						"2012-08-19",
						47,
						23,
						31
					],
					[
						249,
						"CDISCPILOT01",
						"AE",
						"01-703-1295",
						1,
						"E06",
						"ARTHRITIS",
						"ARTHRITIS",
						null,
						"ARTHRITIS",
						null,
						"HLT_0019",
						null,
						"HLGT_0587",
						null,
						"MUSCULOSKELETAL AND CONNECTIVE TISSUE DISORDERS",
						null,
						"MUSCULOSKELETAL AND CONNECTIVE TISSUE DISORDERS",
						null,
						"MODERATE",
						"N",
						"",
						"NONE",
						"NOT RECOVERED/NOT RESOLVED",
						"N",
						"N",
						"N",
						"N",
						"N",
						"N",
						"N",
						"TREATMENT",
						"2014-01-01",
						"2013-12-28",
						"",
						42,
						38,
						null
					],
					[
						250,
						"CDISCPILOT01",
						"AE",
						"01-703-1299",
						3,
						"E01",
						"GLAUCOMA",
						"GLAUCOMA",
						null,
						"GLAUCOMA",
						null,
						"HLT_0556",
						null,
						"HLGT_0734",
						null,
						"EYE DISORDERS",
						null,
						"EYE DISORDERS",
						null,
						"MODERATE",
						"N",
						"",
						"NONE",
						"NOT RECOVERED/NOT RESOLVED",
						"N",
						"N",
						"N",
						"N",
						"N",
						"N",
						"N",
						"SCREENING",
						"2013-03-01",
						"1992",
						"",
						171,
						null,
						null
					],
					[
						251,
						"CDISCPILOT01",
						"AE",
						"01-703-1299",
						4,
						"E05",
						"HYPOTENSION",
						"HYPOTENSION",
						null,
						"HYPOTENSION",
						null,
						"HLT_0761",
						null,
						"HLGT_0412",
						null,
						"VASCULAR DISORDERS",
						null,
						"VASCULAR DISORDERS",
						null,
						"MILD",
						"N",
						"",
						"REMOTE",
						"NOT RECOVERED/NOT RESOLVED",
						"N",
						"N",
						"N",
						"N",
						"N",
						"N",
						"N",
						"TREATMENT",
						"2013-03-01",
						"2013-03-01",
						"",
						171,
						171,
						null
					],
					[
						252,
						"CDISCPILOT01",
						"AE",
						"01-703-1299",
						6,
						"E05",
						"HYPOTENSION",
						"HYPOTENSION",
						null,
						"HYPOTENSION",
						null,
						"HLT_0761",
						null,
						"HLGT_0412",
						null,
						"VASCULAR DISORDERS",
						null,
						"VASCULAR DISORDERS",
						null,
						"MODERATE",
						"N",
						"",
						"REMOTE",
						"NOT RECOVERED/NOT RESOLVED",
						"N",
						"N",
						"N",
						"N",
						"N",
						"N",
						"N",
						"TREATMENT",
						"2013-03-13",
						"2013-03-01",
						"",
						183,
						171,
						null
					],
					[
						253,
						"CDISCPILOT01",
						"AE",
						"01-703-1299",
						8,
						"E07",
						"MYOCARDIAL INFARCTION",
						"MYOCARDIAL INFARCTION",
						null,
						"MYOCARDIAL INFARCTION",
						null,
						"HLT_0649",
						null,
						"HLGT_0688",
						null,
						"CARDIAC DISORDERS",
						null,
						"CARDIAC DISORDERS",
						null,
						"MODERATE",
						"N",
						"",
						"REMOTE",
						"NOT RECOVERED/NOT RESOLVED",
						"N",
						"N",
						"N",
						"N",
						"N",
						"N",
						"N",
						"TREATMENT",
						"2013-03-13",
						"2013-03-13",
						"",
						183,
						183,
						null
					],
					[
						254,
						"CDISCPILOT01",
						"AE",
						"01-703-1299",
						5,
						"E06",
						"TACHYCARDIA",
						"TACHYCARDIA",
						null,
						"TACHYCARDIA",
						null,
						"HLT_0082",
						null,
						"HLGT_0574",
						null,
						"CARDIAC DISORDERS",
						null,
						"CARDIAC DISORDERS",
						null,
						"MILD",
						"N",
						"",
						"REMOTE",
						"NOT RECOVERED/NOT RESOLVED",
						"N",
						"N",
						"N",
						"N",
						"N",
						"N",
						"N",
						"TREATMENT",
						"2013-03-01",
						"2013-03-01",
						"",
						171,
						171,
						null
					],
					[
						255,
						"CDISCPILOT01",
						"AE",
						"01-703-1299",
						7,
						"E06",
						"TACHYCARDIA",
						"TACHYCARDIA",
						null,
						"TACHYCARDIA",
						null,
						"HLT_0082",
						null,
						"HLGT_0574",
						null,
						"CARDIAC DISORDERS",
						null,
						"CARDIAC DISORDERS",
						null,
						"MODERATE",
						"N",
						"",
						"REMOTE",
						"NOT RECOVERED/NOT RESOLVED",
						"N",
						"N",
						"N",
						"N",
						"N",
						"N",
						"N",
						"TREATMENT",
						"2013-03-13",
						"2013-03-01",
						"",
						183,
						171,
						null
					],
					[
						256,
						"CDISCPILOT01",
						"AE",
						"01-703-1299",
						2,
						"E02",
						"UPPER RESPIRATORY TRACT INFECTION",
						"UPPER RESPIRATORY INFECTION",
						null,
						"UPPER RESPIRATORY TRACT INFECTION",
						null,
						"HLT_0520",
						null,
						"HLGT_0489",
						null,
						"INFECTIONS AND INFESTATIONS",
						null,
						"INFECTIONS AND INFESTATIONS",
						null,
						"MILD",
						"N",
						"",
						"NONE",
						"RECOVERED/RESOLVED",
						"N",
						"N",
						"N",
						"N",
						"N",
						"N",
						"N",
						"TREATMENT",
						"2012-10-10",
						"2012-09-27",
						"2012-10-06",
						29,
						16,
						25
					],
					[
						257,
						"CDISCPILOT01",
						"AE",
						"01-703-1335",
						2,
						"E01",
						"ATRIOVENTRICULAR BLOCK SECOND DEGREE",
						"AV BLOCK SECOND DEGREE",
						null,
						"ATRIOVENTRICULAR BLOCK SECOND DEGREE",
						null,
						"HLT_0415",
						null,
						"HLGT_0086",
						null,
						"CARDIAC DISORDERS",
						null,
						"CARDIAC DISORDERS",
						null,
						"MILD",
						"N",
						"",
						"NONE",
						"RECOVERED/RESOLVED",
						"N",
						"N",
						"N",
						"N",
						"N",
						"N",
						"N",
						"SCREENING",
						"2014-03-31",
						"2014-03-15",
						"2014-03-30",
						15,
						-2,
						14
					],
					[
						258,
						"CDISCPILOT01",
						"AE",
						"01-703-1403",
						4,
						"E03",
						"CHEST DISCOMFORT",
						"CHEST TIGHTNESS",
						null,
						"CHEST DISCOMFORT",
						null,
						"HLT_0593",
						null,
						"HLGT_0441",
						null,
						"GENERAL DISORDERS AND ADMINISTRATION SITE CONDITIONS",
						null,
						"GENERAL DISORDERS AND ADMINISTRATION SITE CONDITIONS",
						null,
						"MILD",
						"N",
						"",
						"PROBABLE",
						"RECOVERED/RESOLVED",
						"N",
						"N",
						"N",
						"N",
						"N",
						"N",
						"N",
						"TREATMENT",
						"2012-12-19",
						"2012-12-15",
						"2012-12-16",
						8,
						4,
						5
					],
					[
						259,
						"CDISCPILOT01",
						"AE",
						"01-703-1403",
						2,
						"E01",
						"DIARRHOEA",
						"DIARRHEA",
						null,
						"DIARRHOEA",
						null,
						"HLT_0148",
						null,
						"HLGT_0588",
						null,
						"GASTROINTESTINAL DISORDERS",
						null,
						"GASTROINTESTINAL DISORDERS",
						null,
						"MODERATE",
						"N",
						"",
						"PROBABLE",
						"RECOVERED/RESOLVED",
						"N",
						"N",
						"N",
						"N",
						"N",
						"N",
						"N",
						"TREATMENT",
						"2012-12-19",
						"2012-12-13",
						"2012-12-14",
						8,
						2,
						3
					],
					[
						260,
						"CDISCPILOT01",
						"AE",
						"01-703-1403",
						3,
						"E02",
						"VOMITING",
						"VOMITING",
						null,
						"VOMITING",
						null,
						"HLT_0016",
						null,
						"HLGT_0350",
						null,
						"GASTROINTESTINAL DISORDERS",
						null,
						"GASTROINTESTINAL DISORDERS",
						null,
						"MODERATE",
						"N",
						"",
						"PROBABLE",
						"RECOVERED/RESOLVED",
						"N",
						"N",
						"N",
						"N",
						"N",
						"N",
						"N",
						"TREATMENT",
						"2012-12-19",
						"2012-12-13",
						"2012-12-14",
						8,
						2,
						3
					],
					[
						261,
						"CDISCPILOT01",
						"AE",
						"01-703-1403",
						5,
						"E07",
						"WEIGHT DECREASED",
						"WEIGHT LOSS",
						null,
						"WEIGHT DECREASED",
						null,
						"HLT_0158",
						null,
						"HLGT_0778",
						null,
						"INVESTIGATIONS",
						null,
						"INVESTIGATIONS",
						null,
						"MODERATE",
						"N",
						"",
						"NONE",
						"RECOVERED/RESOLVED",
						"N",
						"N",
						"N",
						"N",
						"N",
						"N",
						"N",
						"TREATMENT",
						"2013-01-08",
						"2012-12-12",
						"2012-12-19",
						28,
						1,
						8
					],
					[
						262,
						"CDISCPILOT01",
						"AE",
						"01-703-1439",
						1,
						"E01",
						"APPLICATION SITE IRRITATION",
						"APPLICATION SITE IRRITATION",
						null,
						"APPLICATION SITE IRRITATION",
						null,
						"HLT_0061",
						null,
						"HLGT_0346",
						null,
						"GENERAL DISORDERS AND ADMINISTRATION SITE CONDITIONS",
						null,
						"GENERAL DISORDERS AND ADMINISTRATION SITE CONDITIONS",
						null,
						"MILD",
						"N",
						"",
						"PROBABLE",
						"NOT RECOVERED/NOT RESOLVED",
						"N",
						"N",
						"N",
						"N",
						"N",
						"N",
						"N",
						"TREATMENT",
						"2014-05-05",
						"2014-04-24",
						"",
						55,
						44,
						null
					],
					[
						263,
						"CDISCPILOT01",
						"AE",
						"01-703-1439",
						2,
						"E01",
						"APPLICATION SITE IRRITATION",
						"APPLICATION SITE IRRITATION",
						null,
						"APPLICATION SITE IRRITATION",
						null,
						"HLT_0061",
						null,
						"HLGT_0346",
						null,
						"GENERAL DISORDERS AND ADMINISTRATION SITE CONDITIONS",
						null,
						"GENERAL DISORDERS AND ADMINISTRATION SITE CONDITIONS",
						null,
						"MODERATE",
						"N",
						"",
						"PROBABLE",
						"NOT RECOVERED/NOT RESOLVED",
						"N",
						"N",
						"N",
						"N",
						"N",
						"N",
						"N",
						"TREATMENT",
						"2014-06-30",
						"2014-04-24",
						"",
						111,
						44,
						null
					],
					[
						264,
						"CDISCPILOT01",
						"AE",
						"01-704-1008",
						1,
						"E03",
						"HYPERHIDROSIS",
						"SWEATING INCREASED",
						null,
						"HYPERHIDROSIS",
						null,
						"HLT_0587",
						null,
						"HLGT_0005",
						null,
						"SKIN AND SUBCUTANEOUS TISSUE DISORDERS",
						null,
						"SKIN AND SUBCUTANEOUS TISSUE DISORDERS",
						null,
						"MILD",
						"N",
						"",
						"POSSIBLE",
						"NOT RECOVERED/NOT RESOLVED",
						"N",
						"N",
						"N",
						"N",
						"N",
						"N",
						"N",
						"TREATMENT",
						"2013-02-09",
						"2013-01-30",
						"",
						28,
						18,
						null
					],
					[
						265,
						"CDISCPILOT01",
						"AE",
						"01-704-1008",
						3,
						"E05",
						"SINUS BRADYCARDIA",
						"SINUS BRADYCARDIA",
						null,
						"SINUS BRADYCARDIA",
						null,
						"HLT_0644",
						null,
						"HLGT_0500",
						null,
						"CARDIAC DISORDERS",
						null,
						"CARDIAC DISORDERS",
						null,
						"MODERATE",
						"N",
						"",
						"NONE",
						"NOT RECOVERED/NOT RESOLVED",
						"N",
						"N",
						"N",
						"N",
						"N",
						"N",
						"N",
						"TREATMENT",
						"2013-02-25",
						"2013-02-25",
						"",
						44,
						44,
						null
					],
					[
						266,
						"CDISCPILOT01",
						"AE",
						"01-704-1008",
						2,
						"E06",
						"TRANSIENT ISCHAEMIC ATTACK",
						"TRANSIENT ISCHEMIC ATTACKS",
						null,
						"TRANSIENT ISCHAEMIC ATTACK",
						null,
						"HLT_0041",
						null,
						"HLGT_0433",
						null,
						"NERVOUS SYSTEM DISORDERS",
						null,
						"NERVOUS SYSTEM DISORDERS",
						null,
						"SEVERE",
						"N",
						"",
						"NONE",
						"RECOVERED/RESOLVED",
						"N",
						"N",
						"N",
						"N",
						"Y",
						"N",
						"N",
						"TREATMENT",
						"2013-02-25",
						"2013-02-21",
						"2013-02-21",
						44,
						40,
						40
					],
					[
						267,
						"CDISCPILOT01",
						"AE",
						"01-704-1009",
						5,
						"E07",
						"DIZZINESS",
						"DIZZINESS",
						null,
						"DIZZINESS",
						null,
						"HLT_0619",
						null,
						"HLGT_0751",
						null,
						"NERVOUS SYSTEM DISORDERS",
						null,
						"NERVOUS SYSTEM DISORDERS",
						null,
						"MILD",
						"N",
						"",
						"REMOTE",
						"NOT RECOVERED/NOT RESOLVED",
						"N",
						"N",
						"N",
						"N",
						"N",
						"N",
						"N",
						"TREATMENT",
						"2013-10-02",
						"2013-09-17",
						"",
						37,
						22,
						null
					],
					[
						268,
						"CDISCPILOT01",
						"AE",
						"01-704-1009",
						1,
						"E09",
						"FATIGUE",
						"FATIGUE",
						null,
						"FATIGUE",
						null,
						"HLT_0043",
						null,
						"HLGT_0181",
						null,
						"GENERAL DISORDERS AND ADMINISTRATION SITE CONDITIONS",
						null,
						"GENERAL DISORDERS AND ADMINISTRATION SITE CONDITIONS",
						null,
						"MILD",
						"N",
						"",
						"REMOTE",
						"NOT RECOVERED/NOT RESOLVED",
						"N",
						"N",
						"N",
						"N",
						"N",
						"N",
						"N",
						"TREATMENT",
						"2013-09-14",
						"2013-09-05",
						"",
						19,
						10,
						null
					],
					[
						269,
						"CDISCPILOT01",
						"AE",
						"01-704-1009",
						4,
						"E10",
						"MALAISE",
						"MALAISE",
						null,
						"MALAISE",
						null,
						"HLT_0456",
						null,
						"HLGT_0178",
						null,
						"GENERAL DISORDERS AND ADMINISTRATION SITE CONDITIONS",
						null,
						"GENERAL DISORDERS AND ADMINISTRATION SITE CONDITIONS",
						null,
						"MILD",
						"N",
						"",
						"POSSIBLE",
						"RECOVERED/RESOLVED",
						"N",
						"N",
						"N",
						"N",
						"N",
						"N",
						"N",
						"TREATMENT",
						"2013-10-02",
						"2013-09-05",
						"2013-09-27",
						37,
						10,
						32
					],
					[
						270,
						"CDISCPILOT01",
						"AE",
						"01-704-1009",
						6,
						"E08",
						"NAUSEA",
						"NAUSEA",
						null,
						"NAUSEA",
						null,
						"HLT_0742",
						null,
						"HLGT_0326",
						null,
						"GASTROINTESTINAL DISORDERS",
						null,
						"GASTROINTESTINAL DISORDERS",
						null,
						"MILD",
						"N",
						"",
						"POSSIBLE",
						"RECOVERED/RESOLVED",
						"N",
						"N",
						"N",
						"N",
						"N",
						"N",
						"N",
						"TREATMENT",
						"2013-10-02",
						"2013-09-22",
						"2013-09-23",
						37,
						27,
						28
					],
					[
						271,
						"CDISCPILOT01",
						"AE",
						"01-704-1009",
						3,
						"E03",
						"RASH",
						"RASH",
						null,
						"RASH",
						null,
						"HLT_0762",
						null,
						"HLGT_0198",
						null,
						"SKIN AND SUBCUTANEOUS TISSUE DISORDERS",
						null,
						"SKIN AND SUBCUTANEOUS TISSUE DISORDERS",
						null,
						"MILD",
						"N",
						"",
						"POSSIBLE",
						"NOT RECOVERED/NOT RESOLVED",
						"N",
						"N",
						"N",
						"N",
						"N",
						"N",
						"N",
						"TREATMENT",
						"2013-09-14",
						"2013-09-14",
						"",
						19,
						19,
						null
					],
					[
						272,
						"CDISCPILOT01",
						"AE",
						"01-704-1010",
						6,
						"E07",
						"ARTHRALGIA",
						"KNEE PAIN",
						null,
						"ARTHRALGIA",
						null,
						"HLT_0375",
						null,
						"HLGT_0610",
						null,
						"MUSCULOSKELETAL AND CONNECTIVE TISSUE DISORDERS",
						null,
						"MUSCULOSKELETAL AND CONNECTIVE TISSUE DISORDERS",
						null,
						"MILD",
						"N",
						"",
						"NONE",
						"NOT RECOVERED/NOT RESOLVED",
						"N",
						"N",
						"N",
						"N",
						"N",
						"N",
						"N",
						"TREATMENT",
						"2014-07-09",
						"2014-07-06",
						"",
						139,
						136,
						null
					],
					[
						273,
						"CDISCPILOT01",
						"AE",
						"01-704-1010",
						7,
						"E08",
						"CONTUSION",
						"BRUISE OF HEAD",
						null,
						"CONTUSION",
						null,
						"HLT_0713",
						null,
						"HLGT_0381",
						null,
						"INJURY, POISONING AND PROCEDURAL COMPLICATIONS",
						null,
						"INJURY, POISONING AND PROCEDURAL COMPLICATIONS",
						null,
						"MILD",
						"N",
						"",
						"NONE",
						"NOT RECOVERED/NOT RESOLVED",
						"N",
						"N",
						"N",
						"N",
						"N",
						"N",
						"N",
						"TREATMENT",
						"2014-07-09",
						"2014-07-06",
						"",
						139,
						136,
						null
					],
					[
						274,
						"CDISCPILOT01",
						"AE",
						"01-704-1010",
						1,
						"E01",
						"CYSTITIS",
						"BLADDER INFECTION",
						null,
						"CYSTITIS",
						null,
						"HLT_0739",
						null,
						"HLGT_0129",
						null,
						"INFECTIONS AND INFESTATIONS",
						null,
						"INFECTIONS AND INFESTATIONS",
						null,
						"MILD",
						"N",
						"",
						"NONE",
						"RECOVERED/RESOLVED",
						"N",
						"N",
						"N",
						"N",
						"N",
						"N",
						"N",
						"TREATMENT",
						"2014-03-08",
						"2014-02-27",
						"2014-03-06",
						16,
						7,
						14
					],
					[
						275,
						"CDISCPILOT01",
						"AE",
						"01-704-1010",
						3,
						"E04",
						"DIARRHOEA",
						"DIARRHEA",
						null,
						"DIARRHOEA",
						null,
						"HLT_0148",
						null,
						"HLGT_0588",
						null,
						"GASTROINTESTINAL DISORDERS",
						null,
						"GASTROINTESTINAL DISORDERS",
						null,
						"MILD",
						"N",
						"",
						"NONE",
						"RECOVERED/RESOLVED",
						"N",
						"N",
						"N",
						"N",
						"N",
						"N",
						"N",
						"TREATMENT",
						"2014-07-09",
						"2014-07-05",
						"2014-07-06",
						139,
						135,
						136
					],
					[
						276,
						"CDISCPILOT01",
						"AE",
						"01-704-1010",
						4,
						"E05",
						"EXCORIATION",
						"ABRASION NOS",
						null,
						"EXCORIATION",
						null,
						"HLT_0738",
						null,
						"HLGT_0511",
						null,
						"INJURY, POISONING AND PROCEDURAL COMPLICATIONS",
						null,
						"INJURY, POISONING AND PROCEDURAL COMPLICATIONS",
						null,
						"MILD",
						"N",
						"",
						"NONE",
						"NOT RECOVERED/NOT RESOLVED",
						"N",
						"N",
						"N",
						"N",
						"N",
						"N",
						"N",
						"TREATMENT",
						"2014-07-09",
						"2014-07-06",
						"",
						139,
						136,
						null
					],
					[
						277,
						"CDISCPILOT01",
						"AE",
						"01-704-1010",
						5,
						"E06",
						"SKIN LACERATION",
						"SKIN TEAR",
						null,
						"SKIN LACERATION",
						null,
						"HLT_0075",
						null,
						"HLGT_0118",
						null,
						"INJURY, POISONING AND PROCEDURAL COMPLICATIONS",
						null,
						"INJURY, POISONING AND PROCEDURAL COMPLICATIONS",
						null,
						"MILD",
						"N",
						"",
						"NONE",
						"NOT RECOVERED/NOT RESOLVED",
						"N",
						"N",
						"N",
						"N",
						"N",
						"N",
						"N",
						"TREATMENT",
						"2014-07-09",
						"2014-07-06",
						"",
						139,
						136,
						null
					],
					[
						278,
						"CDISCPILOT01",
						"AE",
						"01-704-1010",
						2,
						"E03",
						"VOMITING",
						"VOMITING",
						null,
						"VOMITING",
						null,
						"HLT_0016",
						null,
						"HLGT_0350",
						null,
						"GASTROINTESTINAL DISORDERS",
						null,
						"GASTROINTESTINAL DISORDERS",
						null,
						"MILD",
						"N",
						"",
						"NONE",
						"RECOVERED/RESOLVED",
						"N",
						"N",
						"N",
						"N",
						"N",
						"N",
						"N",
						"TREATMENT",
						"2014-07-09",
						"2014-07-05",
						"2014-07-06",
						139,
						135,
						136
					],
					[
						279,
						"CDISCPILOT01",
						"AE",
						"01-704-1017",
						4,
						"E16",
						"CARDIAC DISORDER",
						"CARDIAC DISORDER",
						null,
						"CARDIAC DISORDER",
						null,
						"HLT_0507",
						null,
						"HLGT_0126",
						null,
						"CARDIAC DISORDERS",
						null,
						"CARDIAC DISORDERS",
						null,
						"MILD",
						"N",
						"",
						"NONE",
						"NOT RECOVERED/NOT RESOLVED",
						"N",
						"N",
						"N",
						"N",
						"N",
						"N",
						"N",
						"TREATMENT",
						"2013-11-09",
						"2013-11-01",
						"",
						35,
						27,
						null
					],
					[
						280,
						"CDISCPILOT01",
						"AE",
						"01-704-1017",
						3,
						"E13",
						"INFLUENZA",
						"FLU",
						null,
						"INFLUENZA",
						null,
						"HLT_0125",
						null,
						"HLGT_0081",
						null,
						"INFECTIONS AND INFESTATIONS",
						null,
						"INFECTIONS AND INFESTATIONS",
						null,
						"MILD",
						"N",
						"",
						"NONE",
						"RECOVERED/RESOLVED",
						"N",
						"N",
						"N",
						"N",
						"N",
						"N",
						"N",
						"TREATMENT",
						"2013-11-09",
						"2013-11-01",
						"2013-11-08",
						35,
						27,
						34
					],
					[
						281,
						"CDISCPILOT01",
						"AE",
						"01-704-1017",
						1,
						"E14",
						"MYOCARDIAL INFARCTION",
						"MYOCARDIAL INFARCTION",
						null,
						"MYOCARDIAL INFARCTION",
						null,
						"HLT_0649",
						null,
						"HLGT_0688",
						null,
						"CARDIAC DISORDERS",
						null,
						"CARDIAC DISORDERS",
						null,
						"MILD",
						"N",
						"",
						"NONE",
						"NOT RECOVERED/NOT RESOLVED",
						"N",
						"N",
						"N",
						"N",
						"N",
						"N",
						"N",
						"TREATMENT",
						"2013-10-19",
						"2013-10-19",
						"",
						14,
						14,
						null
					],
					[
						282,
						"CDISCPILOT01",
						"AE",
						"01-704-1017",
						8,
						"E12",
						"PRURITUS",
						"ITCHING",
						null,
						"PRURITUS",
						null,
						"HLT_0778",
						null,
						"HLGT_0695",
						null,
						"SKIN AND SUBCUTANEOUS TISSUE DISORDERS",
						null,
						"SKIN AND SUBCUTANEOUS TISSUE DISORDERS",
						null,
						"MILD",
						"N",
						"",
						"PROBABLE",
						"RECOVERED/RESOLVED",
						"N",
						"N",
						"N",
						"N",
						"N",
						"N",
						"N",
						"TREATMENT",
						"2013-11-24",
						"2013-11-05",
						"2013-11-22",
						50,
						31,
						48
					],
					[
						283,
						"CDISCPILOT01",
						"AE",
						"01-704-1017",
						7,
						"E11",
						"RASH",
						"RASH",
						null,
						"RASH",
						null,
						"HLT_0762",
						null,
						"HLGT_0198",
						null,
						"SKIN AND SUBCUTANEOUS TISSUE DISORDERS",
						null,
						"SKIN AND SUBCUTANEOUS TISSUE DISORDERS",
						null,
						"MILD",
						"N",
						"",
						"PROBABLE",
						"RECOVERED/RESOLVED",
						"N",
						"N",
						"N",
						"N",
						"N",
						"N",
						"N",
						"TREATMENT",
						"2013-11-24",
						"2013-11-05",
						"2013-11-22",
						50,
						31,
						48
					],
					[
						284,
						"CDISCPILOT01",
						"AE",
						"01-704-1017",
						2,
						"E15",
						"VENTRICULAR SEPTAL DEFECT",
						"VENTRICULAR SEPTAL DEFECT",
						null,
						"VENTRICULAR SEPTAL DEFECT",
						null,
						"HLT_0589",
						null,
						"HLGT_0747",
						null,
						"CONGENITAL, FAMILIAL AND GENETIC DISORDERS",
						null,
						"CONGENITAL, FAMILIAL AND GENETIC DISORDERS",
						null,
						"MILD",
						"N",
						"",
						"NONE",
						"NOT RECOVERED/NOT RESOLVED",
						"N",
						"N",
						"N",
						"N",
						"N",
						"N",
						"N",
						"TREATMENT",
						"2013-10-19",
						"2013-10-19",
						"",
						14,
						14,
						null
					],
					[
						285,
						"CDISCPILOT01",
						"AE",
						"01-704-1025",
						5,
						"E05",
						"ELECTROCARDIOGRAM ST SEGMENT DEPRESSION",
						"ST SEGMENT DEPRESSED",
						null,
						"ELECTROCARDIOGRAM ST SEGMENT DEPRESSION",
						null,
						"HLT_0610",
						null,
						"HLGT_0220",
						null,
						"INVESTIGATIONS",
						null,
						"INVESTIGATIONS",
						null,
						"MILD",
						"N",
						"",
						"POSSIBLE",
						"RECOVERED/RESOLVED",
						"N",
						"N",
						"N",
						"N",
						"N",
						"N",
						"N",
						"TREATMENT",
						"2013-11-29",
						"2013-10-11",
						"2013-10-25",
						64,
						15,
						29
					],
					[
						286,
						"CDISCPILOT01",
						"AE",
						"01-704-1025",
						2,
						"E02",
						"PALPITATIONS",
						"PALPITATIONS",
						null,
						"PALPITATIONS",
						null,
						"HLT_0493",
						null,
						"HLGT_0593",
						null,
						"CARDIAC DISORDERS",
						null,
						"CARDIAC DISORDERS",
						null,
						"MODERATE",
						"N",
						"",
						"REMOTE",
						"RECOVERED/RESOLVED",
						"N",
						"N",
						"N",
						"N",
						"N",
						"N",
						"N",
						"TREATMENT",
						"2013-10-11",
						"2013-09-28",
						"2013-09-30",
						15,
						2,
						4
					],
					[
						287,
						"CDISCPILOT01",
						"AE",
						"01-704-1025",
						1,
						"E01",
						"VERTIGO",
						"VERTIGO",
						null,
						"VERTIGO",
						null,
						"HLT_0255",
						null,
						"HLGT_0147",
						null,
						"EAR AND LABYRINTH DISORDERS",
						null,
						"EAR AND LABYRINTH DISORDERS",
						null,
						"MODERATE",
						"N",
						"",
						"POSSIBLE",
						"RECOVERED/RESOLVED",
						"N",
						"N",
						"N",
						"N",
						"N",
						"N",
						"N",
						"TREATMENT",
						"2013-10-11",
						"2013-09-28",
						"2013-09-30",
						15,
						2,
						4
					],
					[
						288,
						"CDISCPILOT01",
						"AE",
						"01-704-1025",
						6,
						"E06",
						"WOLFF-PARKINSON-WHITE SYNDROME",
						"WOLFF-PARKINSON-WHITE SYNDROME",
						null,
						"WOLFF-PARKINSON-WHITE SYNDROME",
						null,
						"HLT_0612",
						null,
						"HLGT_0218",
						null,
						"CARDIAC DISORDERS",
						null,
						"CARDIAC DISORDERS",
						null,
						"MILD",
						"N",
						"",
						"POSSIBLE",
						"RECOVERED/RESOLVED",
						"N",
						"N",
						"N",
						"N",
						"N",
						"N",
						"N",
						"TREATMENT",
						"2013-11-29",
						"2013-10-25",
						"2013-11-29",
						64,
						29,
						64
					],
					[
						289,
						"CDISCPILOT01",
						"AE",
						"01-704-1065",
						1,
						"E13",
						"ABDOMINAL DISCOMFORT",
						"ABDOMINAL DISCOMFORT",
						null,
						"ABDOMINAL DISCOMFORT",
						null,
						"HLT_0012",
						null,
						"HLGT_0332",
						null,
						"GASTROINTESTINAL DISORDERS",
						null,
						"GASTROINTESTINAL DISORDERS",
						null,
						"MILD",
						"N",
						"",
						"REMOTE",
						"NOT RECOVERED/NOT RESOLVED",
						"N",
						"N",
						"N",
						"N",
						"N",
						"N",
						"N",
						"TREATMENT",
						"2013-11-07",
						"2013-10-26",
						"",
						15,
						3,
						null
					],
					[
						290,
						"CDISCPILOT01",
						"AE",
						"01-704-1065",
						4,
						"E12",
						"APPLICATION SITE IRRITATION",
						"APPLICATION SITE BURNING",
						null,
						"APPLICATION SITE IRRITATION",
						null,
						"HLT_0061",
						null,
						"HLGT_0346",
						null,
						"GENERAL DISORDERS AND ADMINISTRATION SITE CONDITIONS",
						null,
						"GENERAL DISORDERS AND ADMINISTRATION SITE CONDITIONS",
						null,
						"MILD",
						"N",
						"",
						"PROBABLE",
						"NOT RECOVERED/NOT RESOLVED",
						"N",
						"N",
						"N",
						"N",
						"N",
						"N",
						"N",
						"TREATMENT",
						"2013-11-25",
						"2013-11-09",
						"",
						33,
						17,
						null
					],
					[
						291,
						"CDISCPILOT01",
						"AE",
						"01-704-1065",
						3,
						"E10",
						"APPLICATION SITE PRURITUS",
						"APPLICATION SITE ITCHING",
						null,
						"APPLICATION SITE PRURITUS",
						null,
						"HLT_0317",
						null,
						"HLGT_0338",
						null,
						"GENERAL DISORDERS AND ADMINISTRATION SITE CONDITIONS",
						null,
						"GENERAL DISORDERS AND ADMINISTRATION SITE CONDITIONS",
						null,
						"MODERATE",
						"N",
						"",
						"PROBABLE",
						"NOT RECOVERED/NOT RESOLVED",
						"N",
						"N",
						"N",
						"N",
						"N",
						"N",
						"N",
						"TREATMENT",
						"2013-11-07",
						"2013-10-27",
						"",
						15,
						4,
						null
					],
					[
						292,
						"CDISCPILOT01",
						"AE",
						"01-704-1065",
						7,
						"E16",
						"CHILLS",
						"CHILLS",
						null,
						"CHILLS",
						null,
						"HLT_0586",
						null,
						"HLGT_0161",
						null,
						"GENERAL DISORDERS AND ADMINISTRATION SITE CONDITIONS",
						null,
						"GENERAL DISORDERS AND ADMINISTRATION SITE CONDITIONS",
						null,
						"MILD",
						"N",
						"",
						"REMOTE",
						"RECOVERED/RESOLVED",
						"N",
						"N",
						"N",
						"N",
						"N",
						"N",
						"N",
						"TREATMENT",
						"2013-11-25",
						"2013-11-17",
						"2013-11-17",
						33,
						25,
						25
					],
					[
						293,
						"CDISCPILOT01",
						"AE",
						"01-704-1065",
						9,
						"E18",
						"DIARRHOEA",
						"DIARRHEA",
						null,
						"DIARRHOEA",
						null,
						"HLT_0148",
						null,
						"HLGT_0588",
						null,
						"GASTROINTESTINAL DISORDERS",
						null,
						"GASTROINTESTINAL DISORDERS",
						null,
						"MILD",
						"N",
						"",
						"REMOTE",
						"RECOVERED/RESOLVED",
						"N",
						"N",
						"N",
						"N",
						"N",
						"N",
						"N",
						"TREATMENT",
						"2013-12-20",
						"2013-12-15",
						"2013-12-15",
						58,
						53,
						53
					],
					[
						294,
						"CDISCPILOT01",
						"AE",
						"01-704-1065",
						8,
						"E17",
						"DIZZINESS",
						"DIZZINESS",
						null,
						"DIZZINESS",
						null,
						"HLT_0619",
						null,
						"HLGT_0751",
						null,
						"NERVOUS SYSTEM DISORDERS",
						null,
						"NERVOUS SYSTEM DISORDERS",
						null,
						"MILD",
						"N",
						"",
						"REMOTE",
						"RECOVERED/RESOLVED",
						"N",
						"N",
						"N",
						"N",
						"N",
						"N",
						"N",
						"TREATMENT",
