{"creationDateTime": "2023-07-31T14:44:34", "datasetJSONVersion": "1.0.0", "fileOID": "UpdatedCDISCPILOT.CDISC SDTM.3.2.QSCO", "clinicalData": {"studyOID": "UpdatedCDISCPILOT.CDISC SDTM.3.2", "metaDataVersionOID": "MDV.UpdatedCDISCPILOT.CDISC SDTM.3.2", "itemGroupData": {"QSCO": {"records": 12241, "name": "QSCO", "label": "Questionnaires", "items": [{"OID": "ITEMGROUPDATASEQ", "name": "ITEMGROUPDATASEQ", "label": "Record identifier", "type": "integer"}, {"OID": "IT.QSCO.STUDYID", "name": "STUDYID", "label": "Study Identifier", "type": "string", "length": 12, "keySequence": 1}, {"OID": "IT.QSCO.DOMAIN", "name": "DOMAIN", "label": "Domain Abbreviation", "type": "string", "length": 2}, {"OID": "IT.QSCO.USUBJID", "name": "USUBJID", "label": "Unique Subject Identifier", "type": "string", "length": 11, "keySequence": 2}, {"OID": "IT.QSCO.QSSEQ", "name": "QSSEQ", "label": "Sequence Number", "type": "integer", "length": 8}, {"OID": "IT.QSCO.QSTESTCD", "name": "QSTESTCD", "label": "Question Short Name", "type": "string", "length": 8, "keySequence": 3}, {"OID": "IT.QSCO.QSTEST", "name": "QSTEST", "label": "Question Name", "type": "string", "length": 40}, {"OID": "IT.QSCO.QSCAT", "name": "QSCAT", "label": "Category of Question", "type": "string", "length": 70}, {"OID": "IT.QSCO.QSSCAT", "name": "QSSCAT", "label": "Subcategory for Question", "type": "string", "length": 26}, {"OID": "IT.QSCO.QSORRES", "name": "QSORRES", "label": "Finding in Original Units", "type": "string", "length": 20}, {"OID": "IT.QSCO.QSORRESU", "name": "QSORRESU", "label": "Original Units", "type": "string", "length": 7}, {"OID": "IT.QSCO.QSSTRESC", "name": "QSSTRESC", "label": "Character Result/Finding in Std Format", "type": "string", "length": 4}, {"OID": "IT.QSCO.QSSTRESN", "name": "QSSTRESN", "label": "Numeric Finding in Standard Units", "type": "integer", "length": 8}, {"OID": "IT.QSCO.QSSTRESU", "name": "QSSTRESU", "label": "Standard Units", "type": "string", "length": 7}, {"OID": "IT.QSCO.QSSTAT", "name": "QSSTAT", "label": "Completion Status", "type": "string", "length": 8}, {"OID": "IT.QSCO.QSREASND", "name": "QSREASND", "label": "Reason Not Performed", "type": "string", "length": 17}, {"OID": "IT.QSCO.QSBLFL", "name": "QSBLFL", "label": "Baseline Flag", "type": "string", "length": 1}, {"OID": "IT.QSCO.QSDRVFL", "name": "QSDRVFL", "label": "Derived Flag", "type": "string", "length": 1}, {"OID": "IT.QSCO.VISITNUM", "name": "VISITNUM", "label": "Visit Number", "type": "float", "length": 8, "keySequence": 4}, {"OID": "IT.QSCO.VISIT", "name": "VISIT", "label": "Visit Name", "type": "string", "length": 19}, {"OID": "IT.QSCO.VISITDY", "name": "VISITDY", "label": "Planned Study Day of Visit", "type": "integer", "length": 8}, {"OID": "IT.QSCO.EPOCH", "name": "EPOCH", "label": "Epoch", "type": "string", "length": 9}, {"OID": "IT.QSCO.QSDTC", "name": "QSDTC", "label": "Date/Time of Finding", "type": "string", "length": 10}, {"OID": "IT.QSCO.QSDY", "name": "QSDY", "label": "Study Day of Finding", "type": "integer", "length": 8}], "itemData": [[1, "CDISCPILOT01", "QS", "01-701-1015", 5001, "ACITM01", "WORD RECALL TASK", "ADAS-COG", "", "3", "", "3", 3, "", "", "", "Y", "", 3.0, "BASELINE", 1, "TREATMENT", "2014-01-02", 1], [2, "CDISCPILOT01", "QS", "01-701-1015", 5016, "ACITM01", "WORD RECALL TASK", "ADAS-COG", "", "2", "", "2", 2, "", "", "", "", "", 8.0, "WEEK 8", 56, "TREATMENT", "2014-03-05", 63], [3, "CDISCPILOT01", "QS", "01-701-1015", 5031, "ACITM01", "WORD RECALL TASK", "ADAS-COG", "", "4", "", "4", 4, "", "", "", "", "", 10.0, "WEEK 16", 112, "TREATMENT", "2014-05-07", 126], [4, "CDISCPILOT01", "QS", "01-701-1015", 5046, "ACITM01", "WORD RECALL TASK", "ADAS-COG", "", "3", "", "3", 3, "", "", "", "", "", 12.0, "WEEK 24", 168, "TREATMENT", "2014-06-18", 168], [5, "CDISCPILOT01", "QS", "01-701-1015", 5002, "ACITM02", "NAMING OBJECTS AND FINGERS (REFER TO 5 C", "ADAS-COG", "", "1", "", "1", 1, "", "", "", "Y", "", 3.0, "BASELINE", 1, "TREATMENT", "2014-01-02", 1], [6, "CDISCPILOT01", "QS", "01-701-1015", 5017, "ACITM02", "NAMING OBJECTS AND FINGERS (REFER TO 5 C", "ADAS-COG", "", "0", "", "0", 0, "", "", "", "", "", 8.0, "WEEK 8", 56, "TREATMENT", "2014-03-05", 63], [7, "CDISCPILOT01", "QS", "01-701-1015", 5032, "ACITM02", "NAMING OBJECTS AND FINGERS (REFER TO 5 C", "ADAS-COG", "", "0", "", "0", 0, "", "", "", "", "", 10.0, "WEEK 16", 112, "TREATMENT", "2014-05-07", 126], [8, "CDISCPILOT01", "QS", "01-701-1015", 5047, "ACITM02", "NAMING OBJECTS AND FINGERS (REFER TO 5 C", "ADAS-COG", "", "0", "", "0", 0, "", "", "", "", "", 12.0, "WEEK 24", 168, "TREATMENT", "2014-06-18", 168], [9, "CDISCPILOT01", "QS", "01-701-1015", 5003, "ACITM03", "DELAYED WORD RECALL", "ADAS-COG", "", "3", "", "3", 3, "", "", "", "Y", "", 3.0, "BASELINE", 1, "TREATMENT", "2014-01-02", 1], [10, "CDISCPILOT01", "QS", "01-701-1015", 5018, "ACITM03", "DELAYED WORD RECALL", "ADAS-COG", "", "3", "", "3", 3, "", "", "", "", "", 8.0, "WEEK 8", 56, "TREATMENT", "2014-03-05", 63], [11, "CDISCPILOT01", "QS", "01-701-1015", 5033, "ACITM03", "DELAYED WORD RECALL", "ADAS-COG", "", "1", "", "1", 1, "", "", "", "", "", 10.0, "WEEK 16", 112, "TREATMENT", "2014-05-07", 126], [12, "CDISCPILOT01", "QS", "01-701-1015", 5048, "ACITM03", "DELAYED WORD RECALL", "ADAS-COG", "", "2", "", "2", 2, "", "", "", "", "", 12.0, "WEEK 24", 168, "TREATMENT", "2014-06-18", 168], [13, "CDISCPILOT01", "QS", "01-701-1015", 5004, "ACITM04", "COMMANDS", "ADAS-COG", "", "0", "", "0", 0, "", "", "", "Y", "", 3.0, "BASELINE", 1, "TREATMENT", "2014-01-02", 1], [14, "CDISCPILOT01", "QS", "01-701-1015", 5019, "ACITM04", "COMMANDS", "ADAS-COG", "", "0", "", "0", 0, "", "", "", "", "", 8.0, "WEEK 8", 56, "TREATMENT", "2014-03-05", 63], [15, "CDISCPILOT01", "QS", "01-701-1015", 5034, "ACITM04", "COMMANDS", "ADAS-COG", "", "0", "", "0", 0, "", "", "", "", "", 10.0, "WEEK 16", 112, "TREATMENT", "2014-05-07", 126], [16, "CDISCPILOT01", "QS", "01-701-1015", 5049, "ACITM04", "COMMANDS", "ADAS-COG", "", "0", "", "0", 0, "", "", "", "", "", 12.0, "WEEK 24", 168, "TREATMENT", "2014-06-18", 168], [17, "CDISCPILOT01", "QS", "01-701-1015", 5005, "ACITM05", "CONSTRUCTIONAL PRAXIS", "ADAS-COG", "", "3", "", "3", 3, "", "", "", "Y", "", 3.0, "BASELINE", 1, "TREATMENT", "2014-01-02", 1], [18, "CDISCPILOT01", "QS", "01-701-1015", 5020, "ACITM05", "CONSTRUCTIONAL PRAXIS", "ADAS-COG", "", "2", "", "2", 2, "", "", "", "", "", 8.0, "WEEK 8", 56, "TREATMENT", "2014-03-05", 63], [19, "CDISCPILOT01", "QS", "01-701-1015", 5035, "ACITM05", "CONSTRUCTIONAL PRAXIS", "ADAS-COG", "", "2", "", "2", 2, "", "", "", "", "", 10.0, "WEEK 16", 112, "TREATMENT", "2014-05-07", 126], [20, "CDISCPILOT01", "QS", "01-701-1015", 5050, "ACITM05", "CONSTRUCTIONAL PRAXIS", "ADAS-COG", "", "3", "", "3", 3, "", "", "", "", "", 12.0, "WEEK 24", 168, "TREATMENT", "2014-06-18", 168], [21, "CDISCPILOT01", "QS", "01-701-1015", 5006, "ACITM06", "IDEATIONAL PRAXIS", "ADAS-COG", "", "0", "", "0", 0, "", "", "", "Y", "", 3.0, "BASELINE", 1, "TREATMENT", "2014-01-02", 1], [22, "CDISCPILOT01", "QS", "01-701-1015", 5021, "ACITM06", "IDEATIONAL PRAXIS", "ADAS-COG", "", "0", "", "0", 0, "", "", "", "", "", 8.0, "WEEK 8", 56, "TREATMENT", "2014-03-05", 63], [23, "CDISCPILOT01", "QS", "01-701-1015", 5036, "ACITM06", "IDEATIONAL PRAXIS", "ADAS-COG", "", "0", "", "0", 0, "", "", "", "", "", 10.0, "WEEK 16", 112, "TREATMENT", "2014-05-07", 126], [24, "CDISCPILOT01", "QS", "01-701-1015", 5051, "ACITM06", "IDEATIONAL PRAXIS", "ADAS-COG", "", "0", "", "0", 0, "", "", "", "", "", 12.0, "WEEK 24", 168, "TREATMENT", "2014-06-18", 168], [25, "CDISCPILOT01", "QS", "01-701-1015", 5007, "ACITM07", "ORIENTATION", "ADAS-COG", "", "1", "", "1", 1, "", "", "", "Y", "", 3.0, "BASELINE", 1, "TREATMENT", "2014-01-02", 1], [26, "CDISCPILOT01", "QS", "01-701-1015", 5022, "ACITM07", "ORIENTATION", "ADAS-COG", "", "0", "", "0", 0, "", "", "", "", "", 8.0, "WEEK 8", 56, "TREATMENT", "2014-03-05", 63], [27, "CDISCPILOT01", "QS", "01-701-1015", 5037, "ACITM07", "ORIENTATION", "ADAS-COG", "", "0", "", "0", 0, "", "", "", "", "", 10.0, "WEEK 16", 112, "TREATMENT", "2014-05-07", 126], [28, "CDISCPILOT01", "QS", "01-701-1015", 5052, "ACITM07", "ORIENTATION", "ADAS-COG", "", "1", "", "1", 1, "", "", "", "", "", 12.0, "WEEK 24", 168, "TREATMENT", "2014-06-18", 168], [29, "CDISCPILOT01", "QS", "01-701-1015", 5008, "ACITM08", "WORD RECOGNITION", "ADAS-COG", "", "1", "", "1", 1, "", "", "", "Y", "", 3.0, "BASELINE", 1, "TREATMENT", "2014-01-02", 1], [30, "CDISCPILOT01", "QS", "01-701-1015", 5023, "ACITM08", "WORD RECOGNITION", "ADAS-COG", "", "0", "", "0", 0, "", "", "", "", "", 8.0, "WEEK 8", 56, "TREATMENT", "2014-03-05", 63], [31, "CDISCPILOT01", "QS", "01-701-1015", 5038, "ACITM08", "WORD RECOGNITION", "ADAS-COG", "", "1", "", "1", 1, "", "", "", "", "", 10.0, "WEEK 16", 112, "TREATMENT", "2014-05-07", 126], [32, "CDISCPILOT01", "QS", "01-701-1015", 5053, "ACITM08", "WORD RECOGNITION", "ADAS-COG", "", "1", "", "1", 1, "", "", "", "", "", 12.0, "WEEK 24", 168, "TREATMENT", "2014-06-18", 168], [33, "CDISCPILOT01", "QS", "01-701-1015", 5009, "ACITM09", "ATTENTION/VISUAL SEARCH TASK", "ADAS-COG", "", "23", "", "23", 23, "", "", "", "Y", "", 3.0, "BASELINE", 1, "TREATMENT", "2014-01-02", 1], [34, "CDISCPILOT01", "QS", "01-701-1015", 5024, "ACITM09", "ATTENTION/VISUAL SEARCH TASK", "ADAS-COG", "", "27", "", "27", 27, "", "", "", "", "", 8.0, "WEEK 8", 56, "TREATMENT", "2014-03-05", 63], [35, "CDISCPILOT01", "QS", "01-701-1015", 5039, "ACITM09", "ATTENTION/VISUAL SEARCH TASK", "ADAS-COG", "", "34", "", "34", 34, "", "", "", "", "", 10.0, "WEEK 16", 112, "TREATMENT", "2014-05-07", 126], [36, "CDISCPILOT01", "QS", "01-701-1015", 5054, "ACITM09", "ATTENTION/VISUAL SEARCH TASK", "ADAS-COG", "", "39", "", "39", 39, "", "", "", "", "", 12.0, "WEEK 24", 168, "TREATMENT", "2014-06-18", 168], [37, "CDISCPILOT01", "QS", "01-701-1015", 5010, "ACITM10", "MAZE SOLUTION", "ADAS-COG", "", "3", "sec", "3", 3, "sec", "", "", "Y", "", 3.0, "BASELINE", 1, "TREATMENT", "2014-01-02", 1], [38, "CDISCPILOT01", "QS", "01-701-1015", 5025, "ACITM10", "MAZE SOLUTION", "ADAS-COG", "", "4", "sec", "4", 4, "sec", "", "", "", "", 8.0, "WEEK 8", 56, "TREATMENT", "2014-03-05", 63], [39, "CDISCPILOT01", "QS", "01-701-1015", 5040, "ACITM10", "MAZE SOLUTION", "ADAS-COG", "", "4", "sec", "4", 4, "sec", "", "", "", "", 10.0, "WEEK 16", 112, "TREATMENT", "2014-05-07", 126], [40, "CDISCPILOT01", "QS", "01-701-1015", 5055, "ACITM10", "MAZE SOLUTION", "ADAS-COG", "", "3", "sec", "3", 3, "sec", "", "", "", "", 12.0, "WEEK 24", 168, "TREATMENT", "2014-06-18", 168], [41, "CDISCPILOT01", "QS", "01-701-1015", 5011, "ACITM11", "SPOKEN LANGUAGE ABILITY", "ADAS-COG", "", "1", "", "1", 1, "", "", "", "Y", "", 3.0, "BASELINE", 1, "TREATMENT", "2014-01-02", 1], [42, "CDISCPILOT01", "QS", "01-701-1015", 5026, "ACITM11", "SPOKEN LANGUAGE ABILITY", "ADAS-COG", "", "1", "", "1", 1, "", "", "", "", "", 8.0, "WEEK 8", 56, "TREATMENT", "2014-03-05", 63], [43, "CDISCPILOT01", "QS", "01-701-1015", 5041, "ACITM11", "SPOKEN LANGUAGE ABILITY", "ADAS-COG", "", "1", "", "1", 1, "", "", "", "", "", 10.0, "WEEK 16", 112, "TREATMENT", "2014-05-07", 126], [44, "CDISCPILOT01", "QS", "01-701-1015", 5056, "ACITM11", "SPOKEN LANGUAGE ABILITY", "ADAS-COG", "", "0", "", "0", 0, "", "", "", "", "", 12.0, "WEEK 24", 168, "TREATMENT", "2014-06-18", 168], [45, "CDISCPILOT01", "QS", "01-701-1015", 5012, "ACITM12", "COMPREHENSION OF SPOKEN LANGUAGE", "ADAS-COG", "", "1", "", "1", 1, "", "", "", "Y", "", 3.0, "BASELINE", 1, "TREATMENT", "2014-01-02", 1], [46, "CDISCPILOT01", "QS", "01-701-1015", 5027, "ACITM12", "COMPREHENSION OF SPOKEN LANGUAGE", "ADAS-COG", "", "1", "", "1", 1, "", "", "", "", "", 8.0, "WEEK 8", 56, "TREATMENT", "2014-03-05", 63], [47, "CDISCPILOT01", "QS", "01-701-1015", 5042, "ACITM12", "COMPREHENSION OF SPOKEN LANGUAGE", "ADAS-COG", "", "1", "", "1", 1, "", "", "", "", "", 10.0, "WEEK 16", 112, "TREATMENT", "2014-05-07", 126], [48, "CDISCPILOT01", "QS", "01-701-1015", 5057, "ACITM12", "COMPREHENSION OF SPOKEN LANGUAGE", "ADAS-COG", "", "0", "", "0", 0, "", "", "", "", "", 12.0, "WEEK 24", 168, "TREATMENT", "2014-06-18", 168], [49, "CDISCPILOT01", "QS", "01-701-1015", 5013, "ACITM13", "WORD FINDING DIFFICULTY IN SPONTANEOUS S", "ADAS-COG", "", "1", "", "1", 1, "", "", "", "Y", "", 3.0, "BASELINE", 1, "TREATMENT", "2014-01-02", 1], [50, "CDISCPILOT01", "QS", "01-701-1015", 5028, "ACITM13", "WORD FINDING DIFFICULTY IN SPONTANEOUS S", "ADAS-COG", "", "1", "", "1", 1, "", "", "", "", "", 8.0, "WEEK 8", 56, "TREATMENT", "2014-03-05", 63], [51, "CDISCPILOT01", "QS", "01-701-1015", 5043, "ACITM13", "WORD FINDING DIFFICULTY IN SPONTANEOUS S", "ADAS-COG", "", "1", "", "1", 1, "", "", "", "", "", 10.0, "WEEK 16", 112, "TREATMENT", "2014-05-07", 126], [52, "CDISCPILOT01", "QS", "01-701-1015", 5058, "ACITM13", "WORD FINDING DIFFICULTY IN SPONTANEOUS S", "ADAS-COG", "", "0", "", "0", 0, "", "", "", "", "", 12.0, "WEEK 24", 168, "TREATMENT", "2014-06-18", 168], [53, "CDISCPILOT01", "QS", "01-701-1015", 5014, "ACITM14", "RECALL OF TEST INSTRUCTIONS", "ADAS-COG", "", "1", "", "1", 1, "", "", "", "Y", "", 3.0, "BASELINE", 1, "TREATMENT", "2014-01-02", 1], [54, "CDISCPILOT01", "QS", "01-701-1015", 5029, "ACITM14", "RECALL OF TEST INSTRUCTIONS", "ADAS-COG", "", "1", "", "1", 1, "", "", "", "", "", 8.0, "WEEK 8", 56, "TREATMENT", "2014-03-05", 63], [55, "CDISCPILOT01", "QS", "01-701-1015", 5044, "ACITM14", "RECALL OF TEST INSTRUCTIONS", "ADAS-COG", "", "1", "", "1", 1, "", "", "", "", "", 10.0, "WEEK 16", 112, "TREATMENT", "2014-05-07", 126], [56, "CDISCPILOT01", "QS", "01-701-1015", 5059, "ACITM14", "RECALL OF TEST INSTRUCTIONS", "ADAS-COG", "", "0", "", "0", 0, "", "", "", "", "", 12.0, "WEEK 24", 168, "TREATMENT", "2014-06-18", 168], [57, "CDISCPILOT01", "QS", "01-701-1015", 5015, "ACTOT", "ADAS-COG(11) Subscore", "ADAS-COG", "", "", "", "13", 13, "", "", "", "Y", "Y", 3.0, "BASELINE", 1, "TREATMENT", "2014-01-02", 1], [58, "CDISCPILOT01", "QS", "01-701-1015", 5030, "ACTOT", "ADAS-COG(11) Subscore", "ADAS-COG", "", "", "", "8", 8, "", "", "", "", "Y", 8.0, "WEEK 8", 56, "TREATMENT", "2014-03-05", 63], [59, "CDISCPILOT01", "QS", "01-701-1015", 5045, "ACTOT", "ADAS-COG(11) Subscore", "ADAS-COG", "", "", "", "11", 11, "", "", "", "", "Y", 10.0, "WEEK 16", 112, "TREATMENT", "2014-05-07", 126], [60, "CDISCPILOT01", "QS", "01-701-1015", 5060, "ACTOT", "ADAS-COG(11) Subscore", "ADAS-COG", "", "", "", "8", 8, "", "", "", "", "Y", 12.0, "WEEK 24", 168, "TREATMENT", "2014-06-18", 168], [61, "CDISCPILOT01", "QS", "01-701-1023", 5001, "ACITM01", "WORD RECALL TASK", "ADAS-COG", "", "4", "", "4", 4, "", "", "", "Y", "", 3.0, "BASELINE", 1, "TREATMENT", "2012-08-05", 1], [62, "CDISCPILOT01", "QS", "01-701-1023", 5016, "ACITM01", "WORD RECALL TASK", "ADAS-COG", "", "2", "", "2", 2, "", "", "", "", "", 5.0, "WEEK 4", 28, "TREATMENT", "2012-09-02", 29], [63, "CDISCPILOT01", "QS", "01-701-1023", 5031, "ACITM01", "WORD RECALL TASK", "ADAS-COG", "", "3", "", "3", 3, "", "", "", "", "", 201.0, "RETRIEVAL", 168, "TREATMENT", "2013-02-18", 198], [64, "CDISCPILOT01", "QS", "01-701-1023", 5002, "ACITM02", "NAMING OBJECTS AND FINGERS (REFER TO 5 C", "ADAS-COG", "", "2", "", "2", 2, "", "", "", "Y", "", 3.0, "BASELINE", 1, "TREATMENT", "2012-08-05", 1], [65, "CDISCPILOT01", "QS", "01-701-1023", 5017, "ACITM02", "NAMING OBJECTS AND FINGERS (REFER TO 5 C", "ADAS-COG", "", "2", "", "2", 2, "", "", "", "", "", 5.0, "WEEK 4", 28, "TREATMENT", "2012-09-02", 29], [66, "CDISCPILOT01", "QS", "01-701-1023", 5032, "ACITM02", "NAMING OBJECTS AND FINGERS (REFER TO 5 C", "ADAS-COG", "", "0", "", "0", 0, "", "", "", "", "", 201.0, "RETRIEVAL", 168, "TREATMENT", "2013-02-18", 198], [67, "CDISCPILOT01", "QS", "01-701-1023", 5003, "ACITM03", "DELAYED WORD RECALL", "ADAS-COG", "", "2", "", "2", 2, "", "", "", "Y", "", 3.0, "BASELINE", 1, "TREATMENT", "2012-08-05", 1], [68, "CDISCPILOT01", "QS", "01-701-1023", 5018, "ACITM03", "DELAYED WORD RECALL", "ADAS-COG", "", "2", "", "2", 2, "", "", "", "", "", 5.0, "WEEK 4", 28, "TREATMENT", "2012-09-02", 29], [69, "CDISCPILOT01", "QS", "01-701-1023", 5033, "ACITM03", "DELAYED WORD RECALL", "ADAS-COG", "", "3", "", "3", 3, "", "", "", "", "", 201.0, "RETRIEVAL", 168, "TREATMENT", "2013-02-18", 198], [70, "CDISCPILOT01", "QS", "01-701-1023", 5004, "ACITM04", "COMMANDS", "ADAS-COG", "", "0", "", "0", 0, "", "", "", "Y", "", 3.0, "BASELINE", 1, "TREATMENT", "2012-08-05", 1], [71, "CDISCPILOT01", "QS", "01-701-1023", 5019, "ACITM04", "COMMANDS", "ADAS-COG", "", "0", "", "0", 0, "", "", "", "", "", 5.0, "WEEK 4", 28, "TREATMENT", "2012-09-02", 29], [72, "CDISCPILOT01", "QS", "01-701-1023", 5034, "ACITM04", "COMMANDS", "ADAS-COG", "", "0", "", "0", 0, "", "", "", "", "", 201.0, "RETRIEVAL", 168, "TREATMENT", "2013-02-18", 198], [73, "CDISCPILOT01", "QS", "01-701-1023", 5005, "ACITM05", "CONSTRUCTIONAL PRAXIS", "ADAS-COG", "", "3", "", "3", 3, "", "", "", "Y", "", 3.0, "BASELINE", 1, "TREATMENT", "2012-08-05", 1], [74, "CDISCPILOT01", "QS", "01-701-1023", 5020, "ACITM05", "CONSTRUCTIONAL PRAXIS", "ADAS-COG", "", "2", "", "2", 2, "", "", "", "", "", 5.0, "WEEK 4", 28, "TREATMENT", "2012-09-02", 29], [75, "CDISCPILOT01", "QS", "01-701-1023", 5035, "ACITM05", "CONSTRUCTIONAL PRAXIS", "ADAS-COG", "", "4", "", "4", 4, "", "", "", "", "", 201.0, "RETRIEVAL", 168, "TREATMENT", "2013-02-18", 198], [76, "CDISCPILOT01", "QS", "01-701-1023", 5006, "ACITM06", "IDEATIONAL PRAXIS", "ADAS-COG", "", "0", "", "0", 0, "", "", "", "Y", "", 3.0, "BASELINE", 1, "TREATMENT", "2012-08-05", 1], [77, "CDISCPILOT01", "QS", "01-701-1023", 5021, "ACITM06", "IDEATIONAL PRAXIS", "ADAS-COG", "", "0", "", "0", 0, "", "", "", "", "", 5.0, "WEEK 4", 28, "TREATMENT", "2012-09-02", 29], [78, "CDISCPILOT01", "QS", "01-701-1023", 5036, "ACITM06", "IDEATIONAL PRAXIS", "ADAS-COG", "", "0", "", "0", 0, "", "", "", "", "", 201.0, "RETRIEVAL", 168, "TREATMENT", "2013-02-18", 198], [79, "CDISCPILOT01", "QS", "01-701-1023", 5007, "ACITM07", "ORIENTATION", "ADAS-COG", "", "2", "", "2", 2, "", "", "", "Y", "", 3.0, "BASELINE", 1, "TREATMENT", "2012-08-05", 1], [80, "CDISCPILOT01", "QS", "01-701-1023", 5022, "ACITM07", "ORIENTATION", "ADAS-COG", "", "1", "", "1", 1, "", "", "", "", "", 5.0, "WEEK 4", 28, "TREATMENT", "2012-09-02", 29], [81, "CDISCPILOT01", "QS", "01-701-1023", 5037, "ACITM07", "ORIENTATION", "ADAS-COG", "", "0", "", "0", 0, "", "", "", "", "", 201.0, "RETRIEVAL", 168, "TREATMENT", "2013-02-18", 198], [82, "CDISCPILOT01", "QS", "01-701-1023", 5008, "ACITM08", "WORD RECOGNITION", "ADAS-COG", "", "2", "", "2", 2, "", "", "", "Y", "", 3.0, "BASELINE", 1, "TREATMENT", "2012-08-05", 1], [83, "CDISCPILOT01", "QS", "01-701-1023", 5023, "ACITM08", "WORD RECOGNITION", "ADAS-COG", "", "1", "", "1", 1, "", "", "", "", "", 5.0, "WEEK 4", 28, "TREATMENT", "2012-09-02", 29], [84, "CDISCPILOT01", "QS", "01-701-1023", 5038, "ACITM08", "WORD RECOGNITION", "ADAS-COG", "", "1", "", "1", 1, "", "", "", "", "", 201.0, "RETRIEVAL", 168, "TREATMENT", "2013-02-18", 198], [85, "CDISCPILOT01", "QS", "01-701-1023", 5009, "ACITM09", "ATTENTION/VISUAL SEARCH TASK", "ADAS-COG", "", "39", "", "39", 39, "", "", "", "Y", "", 3.0, "BASELINE", 1, "TREATMENT", "2012-08-05", 1], [86, "CDISCPILOT01", "QS", "01-701-1023", 5024, "ACITM09", "ATTENTION/VISUAL SEARCH TASK", "ADAS-COG", "", "40", "", "40", 40, "", "", "", "", "", 5.0, "WEEK 4", 28, "TREATMENT", "2012-09-02", 29], [87, "CDISCPILOT01", "QS", "01-701-1023", 5039, "ACITM09", "ATTENTION/VISUAL SEARCH TASK", "ADAS-COG", "", "37", "", "37", 37, "", "", "", "", "", 201.0, "RETRIEVAL", 168, "TREATMENT", "2013-02-18", 198], [88, "CDISCPILOT01", "QS", "01-701-1023", 5010, "ACITM10", "MAZE SOLUTION", "ADAS-COG", "", "5", "sec", "5", 5, "sec", "", "", "Y", "", 3.0, "BASELINE", 1, "TREATMENT", "2012-08-05", 1], [89, "CDISCPILOT01", "QS", "01-701-1023", 5025, "ACITM10", "MAZE SOLUTION", "ADAS-COG", "", "5", "sec", "5", 5, "sec", "", "", "", "", 5.0, "WEEK 4", 28, "TREATMENT", "2012-09-02", 29], [90, "CDISCPILOT01", "QS", "01-701-1023", 5040, "ACITM10", "MAZE SOLUTION", "ADAS-COG", "", "3", "sec", "3", 3, "sec", "", "", "", "", 201.0, "RETRIEVAL", 168, "TREATMENT", "2013-02-18", 198], [91, "CDISCPILOT01", "QS", "01-701-1023", 5011, "ACITM11", "SPOKEN LANGUAGE ABILITY", "ADAS-COG", "", "0", "", "0", 0, "", "", "", "Y", "", 3.0, "BASELINE", 1, "TREATMENT", "2012-08-05", 1], [92, "CDISCPILOT01", "QS", "01-701-1023", 5026, "ACITM11", "SPOKEN LANGUAGE ABILITY", "ADAS-COG", "", "0", "", "0", 0, "", "", "", "", "", 5.0, "WEEK 4", 28, "TREATMENT", "2012-09-02", 29], [93, "CDISCPILOT01", "QS", "01-701-1023", 5041, "ACITM11", "SPOKEN LANGUAGE ABILITY", "ADAS-COG", "", "1", "", "1", 1, "", "", "", "", "", 201.0, "RETRIEVAL", 168, "TREATMENT", "2013-02-18", 198], [94, "CDISCPILOT01", "QS", "01-701-1023", 5012, "ACITM12", "COMPREHENSION OF SPOKEN LANGUAGE", "ADAS-COG", "", "0", "", "0", 0, "", "", "", "Y", "", 3.0, "BASELINE", 1, "TREATMENT", "2012-08-05", 1], [95, "CDISCPILOT01", "QS", "01-701-1023", 5027, "ACITM12", "COMPREHENSION OF SPOKEN LANGUAGE", "ADAS-COG", "", "0", "", "0", 0, "", "", "", "", "", 5.0, "WEEK 4", 28, "TREATMENT", "2012-09-02", 29], [96, "CDISCPILOT01", "QS", "01-701-1023", 5042, "ACITM12", "COMPREHENSION OF SPOKEN LANGUAGE", "ADAS-COG", "", "1", "", "1", 1, "", "", "", "", "", 201.0, "RETRIEVAL", 168, "TREATMENT", "2013-02-18", 198], [97, "CDISCPILOT01", "QS", "01-701-1023", 5013, "ACITM13", "WORD FINDING DIFFICULTY IN SPONTANEOUS S", "ADAS-COG", "", "0", "", "0", 0, "", "", "", "Y", "", 3.0, "BASELINE", 1, "TREATMENT", "2012-08-05", 1], [98, "CDISCPILOT01", "QS", "01-701-1023", 5028, "ACITM13", "WORD FINDING DIFFICULTY IN SPONTANEOUS S", "ADAS-COG", "", "0", "", "0", 0, "", "", "", "", "", 5.0, "WEEK 4", 28, "TREATMENT", "2012-09-02", 29], [99, "CDISCPILOT01", "QS", "01-701-1023", 5043, "ACITM13", "WORD FINDING DIFFICULTY IN SPONTANEOUS S", "ADAS-COG", "", "1", "", "1", 1, "", "", "", "", "", 201.0, "RETRIEVAL", 168, "TREATMENT", "2013-02-18", 198], [100, "CDISCPILOT01", "QS", "01-701-1023", 5014, "ACITM14", "RECALL OF TEST INSTRUCTIONS", "ADAS-COG", "", "0", "", "0", 0, "", "", "", "Y", "", 3.0, "BASELINE", 1, "TREATMENT", "2012-08-05", 1], [101, "CDISCPILOT01", "QS", "01-701-1023", 5029, "ACITM14", "RECALL OF TEST INSTRUCTIONS", "ADAS-COG", "", "0", "", "0", 0, "", "", "", "", "", 5.0, "WEEK 4", 28, "TREATMENT", "2012-09-02", 29], [102, "CDISCPILOT01", "QS", "01-701-1023", 5044, "ACITM14", "RECALL OF TEST INSTRUCTIONS", "ADAS-COG", "", "1", "", "1", 1, "", "", "", "", "", 201.0, "RETRIEVAL", 168, "TREATMENT", "2013-02-18", 198], [103, "CDISCPILOT01", "QS", "01-701-1023", 5015, "ACTOT", "ADAS-COG(11) Subscore", "ADAS-COG", "", "", "", "13", 13, "", "", "", "Y", "Y", 3.0, "BASELINE", 1, "TREATMENT", "2012-08-05", 1], [104, "CDISCPILOT01", "QS", "01-701-1023", 5030, "ACTOT", "ADAS-COG(11) Subscore", "ADAS-COG", "", "", "", "8", 8, "", "", "", "", "Y", 5.0, "WEEK 4", 28, "TREATMENT", "2012-09-02", 29], [105, "CDISCPILOT01", "QS", "01-701-1023", 5045, "ACTOT", "ADAS-COG(11) Subscore", "ADAS-COG", "", "", "", "12", 12, "", "", "", "", "Y", 201.0, "RETRIEVAL", 168, "TREATMENT", "2013-02-18", 198], [106, "CDISCPILOT01", "QS", "01-701-1028", 5001, "ACITM01", "WORD RECALL TASK", "ADAS-COG", "", "1", "", "1", 1, "", "", "", "Y", "", 3.0, "BASELINE", 1, "TREATMENT", "2013-07-19", 1], [107, "CDISCPILOT01", "QS", "01-701-1028", 5016, "ACITM01", "WORD RECALL TASK", "ADAS-COG", "", "1", "", "1", 1, "", "", "", "", "", 8.0, "WEEK 8", 56, "TREATMENT", "2013-09-10", 54], [108, "CDISCPILOT01", "QS", "01-701-1028", 5031, "ACITM01", "WORD RECALL TASK", "ADAS-COG", "", "3", "", "3", 3, "", "", "", "", "", 10.0, "WEEK 16", 112, "TREATMENT", "2013-11-06", 111], [109, "CDISCPILOT01", "QS", "01-701-1028", 5046, "ACITM01", "WORD RECALL TASK", "ADAS-COG", "", "2", "", "2", 2, "", "", "", "", "", 12.0, "WEEK 24", 168, "TREATMENT", "2014-01-06", 172], [110, "CDISCPILOT01", "QS", "01-701-1028", 5002, "ACITM02", "NAMING OBJECTS AND FINGERS (REFER TO 5 C", "ADAS-COG", "", "0", "", "0", 0, "", "", "", "Y", "", 3.0, "BASELINE", 1, "TREATMENT", "2013-07-19", 1], [111, "CDISCPILOT01", "QS", "01-701-1028", 5017, "ACITM02", "NAMING OBJECTS AND FINGERS (REFER TO 5 C", "ADAS-COG", "", "0", "", "0", 0, "", "", "", "", "", 8.0, "WEEK 8", 56, "TREATMENT", "2013-09-10", 54], [112, "CDISCPILOT01", "QS", "01-701-1028", 5032, "ACITM02", "NAMING OBJECTS AND FINGERS (REFER TO 5 C", "ADAS-COG", "", "0", "", "0", 0, "", "", "", "", "", 10.0, "WEEK 16", 112, "TREATMENT", "2013-11-06", 111], [113, "CDISCPILOT01", "QS", "01-701-1028", 5047, "ACITM02", "NAMING OBJECTS AND FINGERS (REFER TO 5 C", "ADAS-COG", "", "0", "", "0", 0, "", "", "", "", "", 12.0, "WEEK 24", 168, "TREATMENT", "2014-01-06", 172], [114, "CDISCPILOT01", "QS", "01-701-1028", 5003, "ACITM03", "DELAYED WORD RECALL", "ADAS-COG", "", "1", "", "1", 1, "", "", "", "Y", "", 3.0, "BASELINE", 1, "TREATMENT", "2013-07-19", 1], [115, "CDISCPILOT01", "QS", "01-701-1028", 5018, "ACITM03", "DELAYED WORD RECALL", "ADAS-COG", "", "0", "", "0", 0, "", "", "", "", "", 8.0, "WEEK 8", 56, "TREATMENT", "2013-09-10", 54], [116, "CDISCPILOT01", "QS", "01-701-1028", 5033, "ACITM03", "DELAYED WORD RECALL", "ADAS-COG", "", "4", "", "4", 4, "", "", "", "", "", 10.0, "WEEK 16", 112, "TREATMENT", "2013-11-06", 111], [117, "CDISCPILOT01", "QS", "01-701-1028", 5048, "ACITM03", "DELAYED WORD RECALL", "ADAS-COG", "", "1", "", "1", 1, "", "", "", "", "", 12.0, "WEEK 24", 168, "TREATMENT", "2014-01-06", 172], [118, "CDISCPILOT01", "QS", "01-701-1028", 5004, "ACITM04", "COMMANDS", "ADAS-COG", "", "0", "", "0", 0, "", "", "", "Y", "", 3.0, "BASELINE", 1, "TREATMENT", "2013-07-19", 1], [119, "CDISCPILOT01", "QS", "01-701-1028", 5019, "ACITM04", "COMMANDS", "ADAS-COG", "", "0", "", "0", 0, "", "", "", "", "", 8.0, "WEEK 8", 56, "TREATMENT", "2013-09-10", 54], [120, "CDISCPILOT01", "QS", "01-701-1028", 5034, "ACITM04", "COMMANDS", "ADAS-COG", "", "0", "", "0", 0, "", "", "", "", "", 10.0, "WEEK 16", 112, "TREATMENT", "2013-11-06", 111], [121, "CDISCPILOT01", "QS", "01-701-1028", 5049, "ACITM04", "COMMANDS", "ADAS-COG", "", "0", "", "0", 0, "", "", "", "", "", 12.0, "WEEK 24", 168, "TREATMENT", "2014-01-06", 172], [122, "CDISCPILOT01", "QS", "01-701-1028", 5005, "ACITM05", "CONSTRUCTIONAL PRAXIS", "ADAS-COG", "", "0", "", "0", 0, "", "", "", "Y", "", 3.0, "BASELINE", 1, "TREATMENT", "2013-07-19", 1], [123, "CDISCPILOT01", "QS", "01-701-1028", 5020, "ACITM05", "CONSTRUCTIONAL PRAXIS", "ADAS-COG", "", "0", "", "0", 0, "", "", "", "", "", 8.0, "WEEK 8", 56, "TREATMENT", "2013-09-10", 54], [124, "CDISCPILOT01", "QS", "01-701-1028", 5035, "ACITM05", "CONSTRUCTIONAL PRAXIS", "ADAS-COG", "", "0", "", "0", 0, "", "", "", "", "", 10.0, "WEEK 16", 112, "TREATMENT", "2013-11-06", 111], [125, "CDISCPILOT01", "QS", "01-701-1028", 5050, "ACITM05", "CONSTRUCTIONAL PRAXIS", "ADAS-COG", "", "0", "", "0", 0, "", "", "", "", "", 12.0, "WEEK 24", 168, "TREATMENT", "2014-01-06", 172], [126, "CDISCPILOT01", "QS", "01-701-1028", 5006, "ACITM06", "IDEATIONAL PRAXIS", "ADAS-COG", "", "0", "", "0", 0, "", "", "", "Y", "", 3.0, "BASELINE", 1, "TREATMENT", "2013-07-19", 1], [127, "CDISCPILOT01", "QS", "01-701-1028", 5021, "ACITM06", "IDEATIONAL PRAXIS", "ADAS-COG", "", "0", "", "0", 0, "", "", "", "", "", 8.0, "WEEK 8", 56, "TREATMENT", "2013-09-10", 54], [128, "CDISCPILOT01", "QS", "01-701-1028", 5036, "ACITM06", "IDEATIONAL PRAXIS", "ADAS-COG", "", "0", "", "0", 0, "", "", "", "", "", 10.0, "WEEK 16", 112, "TREATMENT", "2013-11-06", 111], [129, "CDISCPILOT01", "QS", "01-701-1028", 5051, "ACITM06", "IDEATIONAL PRAXIS", "ADAS-COG", "", "0", "", "0", 0, "", "", "", "", "", 12.0, "WEEK 24", 168, "TREATMENT", "2014-01-06", 172], [130, "CDISCPILOT01", "QS", "01-701-1028", 5007, "ACITM07", "ORIENTATION", "ADAS-COG", "", "0", "", "0", 0, "", "", "", "Y", "", 3.0, "BASELINE", 1, "TREATMENT", "2013-07-19", 1], [131, "CDISCPILOT01", "QS", "01-701-1028", 5022, "ACITM07", "ORIENTATION", "ADAS-COG", "", "0", "", "0", 0, "", "", "", "", "", 8.0, "WEEK 8", 56, "TREATMENT", "2013-09-10", 54], [132, "CDISCPILOT01", "QS", "01-701-1028", 5037, "ACITM07", "ORIENTATION", "ADAS-COG", "", "0", "", "0", 0, "", "", "", "", "", 10.0, "WEEK 16", 112, "TREATMENT", "2013-11-06", 111], [133, "CDISCPILOT01", "QS", "01-701-1028", 5052, "ACITM07", "ORIENTATION", "ADAS-COG", "", "0", "", "0", 0, "", "", "", "", "", 12.0, "WEEK 24", 168, "TREATMENT", "2014-01-06", 172], [134, "CDISCPILOT01", "QS", "01-701-1028", 5008, "ACITM08", "WORD RECOGNITION", "ADAS-COG", "", "2", "", "2", 2, "", "", "", "Y", "", 3.0, "BASELINE", 1, "TREATMENT", "2013-07-19", 1], [135, "CDISCPILOT01", "QS", "01-701-1028", 5023, "ACITM08", "WORD RECOGNITION", "ADAS-COG", "", "1", "", "1", 1, "", "", "", "", "", 8.0, "WEEK 8", 56, "TREATMENT", "2013-09-10", 54], [136, "CDISCPILOT01", "QS", "01-701-1028", 5038, "ACITM08", "WORD RECOGNITION", "ADAS-COG", "", "1", "", "1", 1, "", "", "", "", "", 10.0, "WEEK 16", 112, "TREATMENT", "2013-11-06", 111], [137, "CDISCPILOT01", "QS", "01-701-1028", 5053, "ACITM08", "WORD RECOGNITION", "ADAS-COG", "", "1", "", "1", 1, "", "", "", "", "", 12.0, "WEEK 24", 168, "TREATMENT", "2014-01-06", 172], [138, "CDISCPILOT01", "QS", "01-701-1028", 5009, "ACITM09", "ATTENTION/VISUAL SEARCH TASK", "ADAS-COG", "", "24", "", "24", 24, "", "", "", "Y", "", 3.0, "BASELINE", 1, "TREATMENT", "2013-07-19", 1], [139, "CDISCPILOT01", "QS", "01-701-1028", 5024, "ACITM09", "ATTENTION/VISUAL SEARCH TASK", "ADAS-COG", "", "25", "", "25", 25, "", "", "", "", "", 8.0, "WEEK 8", 56, "TREATMENT", "2013-09-10", 54], [140, "CDISCPILOT01", "QS", "01-701-1028", 5039, "ACITM09", "ATTENTION/VISUAL SEARCH TASK", "ADAS-COG", "", "34", "", "34", 34, "", "", "", "", "", 10.0, "WEEK 16", 112, "TREATMENT", "2013-11-06", 111], [141, "CDISCPILOT01", "QS", "01-701-1028", 5054, "ACITM09", "ATTENTION/VISUAL SEARCH TASK", "ADAS-COG", "", "26", "", "26", 26, "", "", "", "", "", 12.0, "WEEK 24", 168, "TREATMENT", "2014-01-06", 172], [142, "CDISCPILOT01", "QS", "01-701-1028", 5010, "ACITM10", "MAZE SOLUTION", "ADAS-COG", "", "4", "sec", "4", 4, "sec", "", "", "Y", "", 3.0, "BASELINE", 1, "TREATMENT", "2013-07-19", 1], [143, "CDISCPILOT01", "QS", "01-701-1028", 5025, "ACITM10", "MAZE SOLUTION", "ADAS-COG", "", "5", "sec", "5", 5, "sec", "", "", "", "", 8.0, "WEEK 8", 56, "TREATMENT", "2013-09-10", 54], [144, "CDISCPILOT01", "QS", "01-701-1028", 5040, "ACITM10", "MAZE SOLUTION", "ADAS-COG", "", "5", "sec", "5", 5, "sec", "", "", "", "", 10.0, "WEEK 16", 112, "TREATMENT", "2013-11-06", 111], [145, "CDISCPILOT01", "QS", "01-701-1028", 5055, "ACITM10", "MAZE SOLUTION", "ADAS-COG", "", "5", "sec", "5", 5, "sec", "", "", "", "", 12.0, "WEEK 24", 168, "TREATMENT", "2014-01-06", 172], [146, "CDISCPILOT01", "QS", "01-701-1028", 5011, "ACITM11", "SPOKEN LANGUAGE ABILITY", "ADAS-COG", "", "0", "", "0", 0, "", "", "", "Y", "", 3.0, "BASELINE", 1, "TREATMENT", "2013-07-19", 1], [147, "CDISCPILOT01", "QS", "01-701-1028", 5026, "ACITM11", "SPOKEN LANGUAGE ABILITY", "ADAS-COG", "", "0", "", "0", 0, "", "", "", "", "", 8.0, "WEEK 8", 56, "TREATMENT", "2013-09-10", 54], [148, "CDISCPILOT01", "QS", "01-701-1028", 5041, "ACITM11", "SPOKEN LANGUAGE ABILITY", "ADAS-COG", "", "0", "", "0", 0, "", "", "", "", "", 10.0, "WEEK 16", 112, "TREATMENT", "2013-11-06", 111], [149, "CDISCPILOT01", "QS", "01-701-1028", 5056, "ACITM11", "SPOKEN LANGUAGE ABILITY", "ADAS-COG", "", "0", "", "0", 0, "", "", "", "", "", 12.0, "WEEK 24", 168, "TREATMENT", "2014-01-06", 172], [150, "CDISCPILOT01", "QS", "01-701-1028", 5012, "ACITM12", "COMPREHENSION OF SPOKEN LANGUAGE", "ADAS-COG", "", "0", "", "0", 0, "", "", "", "Y", "", 3.0, "BASELINE", 1, "TREATMENT", "2013-07-19", 1], [151, "CDISCPILOT01", "QS", "01-701-1028", 5027, "ACITM12", "COMPREHENSION OF SPOKEN LANGUAGE", "ADAS-COG", "", "0", "", "0", 0, "", "", "", "", "", 8.0, "WEEK 8", 56, "TREATMENT", "2013-09-10", 54], [152, "CDISCPILOT01", "QS", "01-701-1028", 5042, "ACITM12", "COMPREHENSION OF SPOKEN LANGUAGE", "ADAS-COG", "", "0", "", "0", 0, "", "", "", "", "", 10.0, "WEEK 16", 112, "TREATMENT", "2013-11-06", 111], [153, "CDISCPILOT01", "QS", "01-701-1028", 5057, "ACITM12", "COMPREHENSION OF SPOKEN LANGUAGE", "ADAS-COG", "", "0", "", "0", 0, "", "", "", "", "", 12.0, "WEEK 24", 168, "TREATMENT", "2014-01-06", 172], [154, "CDISCPILOT01", "QS", "01-701-1028", 5013, "ACITM13", "WORD FINDING DIFFICULTY IN SPONTANEOUS S", "ADAS-COG", "", "0", "", "0", 0, "", "", "", "Y", "", 3.0, "BASELINE", 1, "TREATMENT", "2013-07-19", 1], [155, "CDISCPILOT01", "QS", "01-701-1028", 5028, "ACITM13", "WORD FINDING DIFFICULTY IN SPONTANEOUS S", "ADAS-COG", "", "0", "", "0", 0, "", "", "", "", "", 8.0, "WEEK 8", 56, "TREATMENT", "2013-09-10", 54], [156, "CDISCPILOT01", "QS", "01-701-1028", 5043, "ACITM13", "WORD FINDING DIFFICULTY IN SPONTANEOUS S", "ADAS-COG", "", "0", "", "0", 0, "", "", "", "", "", 10.0, "WEEK 16", 112, "TREATMENT", "2013-11-06", 111], [157, "CDISCPILOT01", "QS", "01-701-1028", 5058, "ACITM13", "WORD FINDING DIFFICULTY IN SPONTANEOUS S", "ADAS-COG", "", "0", "", "0", 0, "", "", "", "", "", 12.0, "WEEK 24", 168, "TREATMENT", "2014-01-06", 172], [158, "CDISCPILOT01", "QS", "01-701-1028", 5014, "ACITM14", "RECALL OF TEST INSTRUCTIONS", "ADAS-COG", "", "0", "", "0", 0, "", "", "", "Y", "", 3.0, "BASELINE", 1, "TREATMENT", "2013-07-19", 1], [159, "CDISCPILOT01", "QS", "01-701-1028", 5029, "ACITM14", "RECALL OF TEST INSTRUCTIONS", "ADAS-COG", "", "0", "", "0", 0, "", "", "", "", "", 8.0, "WEEK 8", 56, "TREATMENT", "2013-09-10", 54], [160, "CDISCPILOT01", "QS", "01-701-1028", 5044, "ACITM14", "RECALL OF TEST INSTRUCTIONS", "ADAS-COG", "", "0", "", "0", 0, "", "", "", "", "", 10.0, "WEEK 16", 112, "TREATMENT", "2013-11-06", 111], [161, "CDISCPILOT01", "QS", "01-701-1028", 5059, "ACITM14", "RECALL OF TEST INSTRUCTIONS", "ADAS-COG", "", "0", "", "0", 0, "", "", "", "", "", 12.0, "WEEK 24", 168, "TREATMENT", "2014-01-06", 172], [162, "CDISCPILOT01", "QS", "01-701-1028", 5015, "ACTOT", "ADAS-COG(11) Subscore", "ADAS-COG", "", "", "", "3", 3, "", "", "", "Y", "Y", 3.0, "BASELINE", 1, "TREATMENT", "2013-07-19", 1], [163, "CDISCPILOT01", "QS", "01-701-1028", 5030, "ACTOT", "ADAS-COG(11) Subscore", "ADAS-COG", "", "", "", "2", 2, "", "", "", "", "Y", 8.0, "WEEK 8", 56, "TREATMENT", "2013-09-10", 54], [164, "CDISCPILOT01", "QS", "01-701-1028", 5045, "ACTOT", "ADAS-COG(11) Subscore", "ADAS-COG", "", "", "", "4", 4, "", "", "", "", "Y", 10.0, "WEEK 16", 112, "TREATMENT", "2013-11-06", 111], [165, "CDISCPILOT01", "QS", "01-701-1028", 5060, "ACTOT", "ADAS-COG(11) Subscore", "ADAS-COG", "", "", "", "3", 3, "", "", "", "", "Y", 12.0, "WEEK 24", 168, "TREATMENT", "2014-01-06", 172], [166, "CDISCPILOT01", "QS", "01-701-1033", 5001, "ACITM01", "WORD RECALL TASK", "ADAS-COG", "", "5", "", "5", 5, "", "", "", "Y", "", 3.0, "BASELINE", 1, "TREATMENT", "2014-03-18", 1], [167, "CDISCPILOT01", "QS", "01-701-1033", 5016, "ACITM01", "WORD RECALL TASK", "ADAS-COG", "", "5", "", "5", 5, "", "", "", "", "", 5.0, "WEEK 4", 28, "TREATMENT", "2014-04-14", 28], [168, "CDISCPILOT01", "QS", "01-701-1033", 5031, "ACITM01", "WORD RECALL TASK", "ADAS-COG", "", "6", "", "6", 6, "", "", "", "", "", 201.0, "RETRIEVAL", 168, "TREATMENT", "2014-09-15", 182], [169, "CDISCPILOT01", "QS", "01-701-1033", 5002, "ACITM02", "NAMING OBJECTS AND FINGERS (REFER TO 5 C", "ADAS-COG", "", "0", "", "0", 0, "", "", "", "Y", "", 3.0, "BASELINE", 1, "TREATMENT", "2014-03-18", 1], [170, "CDISCPILOT01", "QS", "01-701-1033", 5017, "ACITM02", "NAMING OBJECTS AND FINGERS (REFER TO 5 C", "ADAS-COG", "", "0", "", "0", 0, "", "", "", "", "", 5.0, "WEEK 4", 28, "TREATMENT", "2014-04-14", 28], [171, "CDISCPILOT01", "QS", "01-701-1033", 5032, "ACITM02", "NAMING OBJECTS AND FINGERS (REFER TO 5 C", "ADAS-COG", "", "0", "", "0", 0, "", "", "", "", "", 201.0, "RETRIEVAL", 168, "TREATMENT", "2014-09-15", 182], [172, "CDISCPILOT01", "QS", "01-701-1033", 5003, "ACITM03", "DELAYED WORD RECALL", "ADAS-COG", "", "6", "", "6", 6, "", "", "", "Y", "", 3.0, "BASELINE", 1, "TREATMENT", "2014-03-18", 1], [173, "CDISCPILOT01", "QS", "01-701-1033", 5018, "ACITM03", "DELAYED WORD RECALL", "ADAS-COG", "", "3", "", "3", 3, "", "", "", "", "", 5.0, "WEEK 4", 28, "TREATMENT", "2014-04-14", 28], [174, "CDISCPILOT01", "QS", "01-701-1033", 5033, "ACITM03", "DELAYED WORD RECALL", "ADAS-COG", "", "6", "", "6", 6, "", "", "", "", "", 201.0, "RETRIEVAL", 168, "TREATMENT", "2014-09-15", 182], [175, "CDISCPILOT01", "QS", "01-701-1033", 5004, "ACITM04", "COMMANDS", "ADAS-COG", "", "0", "", "0", 0, "", "", "", "Y", "", 3.0, "BASELINE", 1, "TREATMENT", "2014-03-18", 1], [176, "CDISCPILOT01", "QS", "01-701-1033", 5019, "ACITM04", "COMMANDS", "ADAS-COG", "", "0", "", "0", 0, "", "", "", "", "", 5.0, "WEEK 4", 28, "TREATMENT", "2014-04-14", 28], [177, "CDISCPILOT01", "QS", "01-701-1033", 5034, "ACITM04", "COMMANDS", "ADAS-COG", "", "0", "", "0", 0, "", "", "", "", "", 201.0, "RETRIEVAL", 168, "TREATMENT", "2014-09-15", 182], [178, "CDISCPILOT01", "QS", "01-701-1033", 5005, "ACITM05", "CONSTRUCTIONAL PRAXIS", "ADAS-COG", "", "1", "", "1", 1, "", "", "", "Y", "", 3.0, "BASELINE", 1, "TREATMENT", "2014-03-18", 1], [179, "CDISCPILOT01", "QS", "01-701-1033", 5020, "ACITM05", "CONSTRUCTIONAL PRAXIS", "ADAS-COG", "", "1", "", "1", 1, "", "", "", "", "", 5.0, "WEEK 4", 28, "TREATMENT", "2014-04-14", 28], [180, "CDISCPILOT01", "QS", "01-701-1033", 5035, "ACITM05", "CONSTRUCTIONAL PRAXIS", "ADAS-COG", "", "0", "", "0", 0, "", "", "", "", "", 201.0, "RETRIEVAL", 168, "TREATMENT", "2014-09-15", 182], [181, "CDISCPILOT01", "QS", "01-701-1033", 5006, "ACITM06", "IDEATIONAL PRAXIS", "ADAS-COG", "", "0", "", "0", 0, "", "", "", "Y", "", 3.0, "BASELINE", 1, "TREATMENT", "2014-03-18", 1], [182, "CDISCPILOT01", "QS", "01-701-1033", 5021, "ACITM06", "IDEATIONAL PRAXIS", "ADAS-COG", "", "0", "", "0", 0, "", "", "", "", "", 5.0, "WEEK 4", 28, "TREATMENT", "2014-04-14", 28], [183, "CDISCPILOT01", "QS", "01-701-1033", 5036, "ACITM06", "IDEATIONAL PRAXIS", "ADAS-COG", "", "0", "", "0", 0, "", "", "", "", "", 201.0, "RETRIEVAL", 168, "TREATMENT", "2014-09-15", 182], [184, "CDISCPILOT01", "QS", "01-701-1033", 5007, "ACITM07", "ORIENTATION", "ADAS-COG", "", "0", "", "0", 0, "", "", "", "Y", "", 3.0, "BASELINE", 1, "TREATMENT", "2014-03-18", 1], [185, "CDISCPILOT01", "QS", "01-701-1033", 5022, "ACITM07", "ORIENTATION", "ADAS-COG", "", "0", "", "0", 0, "", "", "", "", "", 5.0, "WEEK 4", 28, "TREATMENT", "2014-04-14", 28], [186, "CDISCPILOT01", "QS", "01-701-1033", 5037, "ACITM07", "ORIENTATION", "ADAS-COG", "", "0", "", "0", 0, "", "", "", "", "", 201.0, "RETRIEVAL", 168, "TREATMENT", "2014-09-15", 182], [187, "CDISCPILOT01", "QS", "01-701-1033", 5008, "ACITM08", "WORD RECOGNITION", "ADAS-COG", "", "1", "", "1", 1, "", "", "", "Y", "", 3.0, "BASELINE", 1, "TREATMENT", "2014-03-18", 1], [188, "CDISCPILOT01", "QS", "01-701-1033", 5023, "ACITM08", "WORD RECOGNITION", "ADAS-COG", "", "2", "", "2", 2, "", "", "", "", "", 5.0, "WEEK 4", 28, "TREATMENT", "2014-04-14", 28], [189, "CDISCPILOT01", "QS", "01-701-1033", 5038, "ACITM08", "WORD RECOGNITION", "ADAS-COG", "", "1", "", "1", 1, "", "", "", "", "", 201.0, "RETRIEVAL", 168, "TREATMENT", "2014-09-15", 182], [190, "CDISCPILOT01", "QS", "01-701-1033", 5009, "ACITM09", "ATTENTION/VISUAL SEARCH TASK", "ADAS-COG", "", "30", "", "30", 30, "", "", "", "Y", "", 3.0, "BASELINE", 1, "TREATMENT", "2014-03-18", 1], [191, "CDISCPILOT01", "QS", "01-701-1033", 5024, "ACITM09", "ATTENTION/VISUAL SEARCH TASK", "ADAS-COG", "", "24", "", "24", 24, "", "", "", "", "", 5.0, "WEEK 4", 28, "TREATMENT", "2014-04-14", 28], [192, "CDISCPILOT01", "QS", "01-701-1033", 5039, "ACITM09", "ATTENTION/VISUAL SEARCH TASK", "ADAS-COG", "", "27", "", "27", 27, "", "", "", "", "", 201.0, "RETRIEVAL", 168, "TREATMENT", "2014-09-15", 182], [193, "CDISCPILOT01", "QS", "01-701-1033", 5010, "ACITM10", "MAZE SOLUTION", "ADAS-COG", "", "7", "sec", "7", 7, "sec", "", "", "Y", "", 3.0, "BASELINE", 1, "TREATMENT", "2014-03-18", 1], [194, "CDISCPILOT01", "QS", "01-701-1033", 5025, "ACITM10", "MAZE SOLUTION", "ADAS-COG", "", "6", "sec", "6", 6, "sec", "", "", "", "", 5.0, "WEEK 4", 28, "TREATMENT", "2014-04-14", 28], [195, "CDISCPILOT01", "QS", "01-701-1033", 5040, "ACITM10", "MAZE SOLUTION", "ADAS-COG", "", "4", "sec", "4", 4, "sec", "", "", "", "", 201.0, "RETRIEVAL", 168, "TREATMENT", "2014-09-15", 182], [196, "CDISCPILOT01", "QS", "01-701-1033", 5011, "ACITM11", "SPOKEN LANGUAGE ABILITY", "ADAS-COG", "", "0", "", "0", 0, "", "", "", "Y", "", 3.0, "BASELINE", 1, "TREATMENT", "2014-03-18", 1], [197, "CDISCPILOT01", "QS", "01-701-1033", 5026, "ACITM11", "SPOKEN LANGUAGE ABILITY", "ADAS-COG", "", "0", "", "0", 0, "", "", "", "", "", 5.0, "WEEK 4", 28, "TREATMENT", "2014-04-14", 28], [198, "CDISCPILOT01", "QS", "01-701-1033", 5041, "ACITM11", "SPOKEN LANGUAGE ABILITY", "ADAS-COG", "", "0", "", "0", 0, "", "", "", "", "", 201.0, "RETRIEVAL", 168, "TREATMENT", "2014-09-15", 182], [199, "CDISCPILOT01", "QS", "01-701-1033", 5012, "ACITM12", "COMPREHENSION OF SPOKEN LANGUAGE", "ADAS-COG", "", "0", "", "0", 0, "", "", "", "Y", "", 3.0, "BASELINE", 1, "TREATMENT", "2014-03-18", 1], [200, "CDISCPILOT01", "QS", "01-701-1033", 5027, "ACITM12", "COMPREHENSION OF SPOKEN LANGUAGE", "ADAS-COG", "", "0", "", "0", 0, "", "", "", "", "", 5.0, "WEEK 4", 28, "TREATMENT", "2014-04-14", 28], [201, "CDISCPILOT01", "QS", "01-701-1033", 5042, "ACITM12", "COMPREHENSION OF SPOKEN LANGUAGE", "ADAS-COG", "", "0", "", "0", 0, "", "", "", "", "", 201.0, "RETRIEVAL", 168, "TREATMENT", "2014-09-15", 182], [202, "CDISCPILOT01", "QS", "01-701-1033", 5013, "ACITM13", "WORD FINDING DIFFICULTY IN SPONTANEOUS S", "ADAS-COG", "", "0", "", "0", 0, "", "", "", "Y", "", 3.0, "BASELINE", 1, "TREATMENT", "2014-03-18", 1], [203, "CDISCPILOT01", "QS", "01-701-1033", 5028, "ACITM13", "WORD FINDING DIFFICULTY IN SPONTANEOUS S", "ADAS-COG", "", "0", "", "0", 0, "", "", "", "", "", 5.0, "WEEK 4", 28, "TREATMENT", "2014-04-14", 28], [204, "CDISCPILOT01", "QS", "01-701-1033", 5043, "ACITM13", "WORD FINDING DIFFICULTY IN SPONTANEOUS S", "ADAS-COG", "", "0", "", "0", 0, "", "", "", "", "", 201.0, "RETRIEVAL", 168, "TREATMENT", "2014-09-15", 182], [205, "CDISCPILOT01", "QS", "01-701-1033", 5014, "ACITM14", "RECALL OF TEST INSTRUCTIONS", "ADAS-COG", "", "0", "", "0", 0, "", "", "", "Y", "", 3.0, "BASELINE", 1, "TREATMENT", "2014-03-18", 1], [206, "CDISCPILOT01", "QS", "01-701-1033", 5029, "ACITM14", "RECALL OF TEST INSTRUCTIONS", "ADAS-COG", "", "0", "", "0", 0, "", "", "", "", "", 5.0, "WEEK 4", 28, "TREATMENT", "2014-04-14", 28], [207, "CDISCPILOT01", "QS", "01-701-1033", 5044, "ACITM14", "RECALL OF TEST INSTRUCTIONS", "ADAS-COG", "", "0", "", "0", 0, "", "", "", "", "", 201.0, "RETRIEVAL", 168, "TREATMENT", "2014-09-15", 182], [208, "CDISCPILOT01", "QS", "01-701-1033", 5015, "ACTOT", "ADAS-COG(11) Subscore", "ADAS-COG", "", "", "", "7", 7, "", "", "", "Y", "Y", 3.0, "BASELINE", 1, "TREATMENT", "2014-03-18", 1], [209, "CDISCPILOT01", "QS", "01-701-1033", 5030, "ACTOT", "ADAS-COG(11) Subscore", "ADAS-COG", "", "", "", "8", 8, "", "", "", "", "Y", 5.0, "WEEK 4", 28, "TREATMENT", "2014-04-14", 28], [210, "CDISCPILOT01", "QS", "01-701-1033", 5045, "ACTOT", "ADAS-COG(11) Subscore", "ADAS-COG", "", "", "", "7", 7, "", "", "", "", "Y", 201.0, "RETRIEVAL", 168, "TREATMENT", "2014-09-15", 182], [211, "CDISCPILOT01", "QS", "01-701-1034", 5001, "ACITM01", "WORD RECALL TASK", "ADAS-COG", "", "5", "", "5", 5, "", "", "", "Y", "", 3.0, "BASELINE", 1, "TREATMENT", "2014-07-01", 1], [212, "CDISCPILOT01", "QS", "01-701-1034", 5016, "ACITM01", "WORD RECALL TASK", "ADAS-COG", "", "5", "", "5", 5, "", "", "", "", "", 8.0, "WEEK 8", 56, "TREATMENT", "2014-08-26", 57], [213, "CDISCPILOT01", "QS", "01-701-1034", 5031, "ACITM01", "WORD RECALL TASK", "ADAS-COG", "", "6", "", "6", 6, "", "", "", "", "", 10.0, "WEEK 16", 112, "TREATMENT", "2014-10-21", 113], [214, "CDISCPILOT01", "QS", "01-701-1034", 5046, "ACITM01", "WORD RECALL TASK", "ADAS-COG", "", "6", "", "6", 6, "", "", "", "", "", 12.0, "WEEK 24", 168, "TREATMENT", "2014-12-17", 170], [215, "CDISCPILOT01", "QS", "01-701-1034", 5002, "ACITM02", "NAMING OBJECTS AND FINGERS (REFER TO 5 C", "ADAS-COG", "", "0", "", "0", 0, "", "", "", "Y", "", 3.0, "BASELINE", 1, "TREATMENT", "2014-07-01", 1], [216, "CDISCPILOT01", "QS", "01-701-1034", 5017, "ACITM02", "NAMING OBJECTS AND FINGERS (REFER TO 5 C", "ADAS-COG", "", "1", "", "1", 1, "", "", "", "", "", 8.0, "WEEK 8", 56, "TREATMENT", "2014-08-26", 57], [217, "CDISCPILOT01", "QS", "01-701-1034", 5032, "ACITM02", "NAMING OBJECTS AND FINGERS (REFER TO 5 C", "ADAS-COG", "", "1", "", "1", 1, "", "", "", "", "", 10.0, "WEEK 16", 112, "TREATMENT", "2014-10-21", 113], [218, "CDISCPILOT01", "QS", "01-701-1034", 5047, "ACITM02", "NAMING OBJECTS AND FINGERS (REFER TO 5 C", "ADAS-COG", "", "1", "", "1", 1, "", "", "", "", "", 12.0, "WEEK 24", 168, "TREATMENT", "2014-12-17", 170], [219, "CDISCPILOT01", "QS", "01-701-1034", 5003, "ACITM03", "DELAYED WORD RECALL", "ADAS-COG", "", "9", "", "9", 9, "", "", "", "Y", "", 3.0, "BASELINE", 1, "TREATMENT", "2014-07-01", 1], [220, "CDISCPILOT01", "QS", "01-701-1034", 5018, "ACITM03", "DELAYED WORD RECALL", "ADAS-COG", "", "7", "", "7", 7, "", "", "", "", "", 8.0, "WEEK 8", 56, "TREATMENT", "2014-08-26", 57], [221, "CDISCPILOT01", "QS", "01-701-1034", 5033, "ACITM03", "DELAYED WORD RECALL", "ADAS-COG", "", "10", "", "10", 10, "", "", "", "", "", 10.0, "WEEK 16", 112, "TREATMENT", "2014-10-21", 113], [222, "CDISCPILOT01", "QS", "01-701-1034", 5048, "ACITM03", "DELAYED WORD RECALL", "ADAS-COG", "", "10", "", "10", 10, "", "", "", "", "", 12.0, "WEEK 24", 168, "TREATMENT", "2014-12-17", 170], [223, "CDISCPILOT01", "QS", "01-701-1034", 5004, "ACITM04", "COMMANDS", "ADAS-COG", "", "0", "", "0", 0, "", "", "", "Y", "", 3.0, "BASELINE", 1, "TREATMENT", "2014-07-01", 1], [224, "CDISCPILOT01", "QS", "01-701-1034", 5019, "ACITM04", "COMMANDS", "ADAS-COG", "", "0", "", "0", 0, "", "", "", "", "", 8.0, "WEEK 8", 56, "TREATMENT", "2014-08-26", 57], [225, "CDISCPILOT01", "QS", "01-701-1034", 5034, "ACITM04", "COMMANDS", "ADAS-COG", "", "0", "", "0", 0, "", "", "", "", "", 10.0, "WEEK 16", 112, "TREATMENT", "2014-10-21", 113], [226, "CDISCPILOT01", "QS", "01-701-1034", 5049, "ACITM04", "COMMANDS", "ADAS-COG", "", "0", "", "0", 0, "", "", "", "", "", 12.0, "WEEK 24", 168, "TREATMENT", "2014-12-17", 170], [227, "CDISCPILOT01", "QS", "01-701-1034", 5005, "ACITM05", "CONSTRUCTIONAL PRAXIS", "ADAS-COG", "", "2", "", "2", 2, "", "", "", "Y", "", 3.0, "BASELINE", 1, "TREATMENT", "2014-07-01", 1], [228, "CDISCPILOT01", "QS", "01-701-1034", 5020, "ACITM05", "CONSTRUCTIONAL PRAXIS", "ADAS-COG", "", "1", "", "1", 1, "", "", "", "", "", 8.0, "WEEK 8", 56, "TREATMENT", "2014-08-26", 57], [229, "CDISCPILOT01", "QS", "01-701-1034", 5035, "ACITM05", "CONSTRUCTIONAL PRAXIS", "ADAS-COG", "", "3", "", "3", 3, "", "", "", "", "", 10.0, "WEEK 16", 112, "TREATMENT", "2014-10-21", 113], [230, "CDISCPILOT01", "QS", "01-701-1034", 5050, "ACITM05", "CONSTRUCTIONAL PRAXIS", "ADAS-COG", "", "2", "", "2", 2, "", "", "", "", "", 12.0, "WEEK 24", 168, "TREATMENT", "2014-12-17", 170], [231, "CDISCPILOT01", "QS", "01-701-1034", 5006, "ACITM06", "IDEATIONAL PRAXIS", "ADAS-COG", "", "1", "", "1", 1, "", "", "", "Y", "", 3.0, "BASELINE", 1, "TREATMENT", "2014-07-01", 1], [232, "CDISCPILOT01", "QS", "01-701-1034", 5021, "ACITM06", "IDEATIONAL PRAXIS", "ADAS-COG", "", "0", "", "0", 0, "", "", "", "", "", 8.0, "WEEK 8", 56, "TREATMENT", "2014-08-26", 57], [233, "CDISCPILOT01", "QS", "01-701-1034", 5036, "ACITM06", "IDEATIONAL PRAXIS", "ADAS-COG", "", "0", "", "0", 0, "", "", "", "", "", 10.0, "WEEK 16", 112, "TREATMENT", "2014-10-21", 113], [234, "CDISCPILOT01", "QS", "01-701-1034", 5051, "ACITM06", "IDEATIONAL PRAXIS", "ADAS-COG", "", "0", "", "0", 0, "", "", "", "", "", 12.0, "WEEK 24", 168, "TREATMENT", "2014-12-17", 170], [235, "CDISCPILOT01", "QS", "01-701-1034", 5007, "ACITM07", "ORIENTATION", "ADAS-COG", "", "0", "", "0", 0, "", "", "", "Y", "", 3.0, "BASELINE", 1, "TREATMENT", "2014-07-01", 1], [236, "CDISCPILOT01", "QS", "01-701-1034", 5022, "ACITM07", "ORIENTATION", "ADAS-COG", "", "0", "", "0", 0, "", "", "", "", "", 8.0, "WEEK 8", 56, "TREATMENT", "2014-08-26", 57], [237, "CDISCPILOT01", "QS", "01-701-1034", 5037, "ACITM07", "ORIENTATION", "ADAS-COG", "", "0", "", "0", 0, "", "", "", "", "", 10.0, "WEEK 16", 112, "TREATMENT", "2014-10-21", 113], [238, "CDISCPILOT01", "QS", "01-701-1034", 5052, "ACITM07", "ORIENTATION", "ADAS-COG", "", "0", "", "0", 0, "", "", "", "", "", 12.0, "WEEK 24", 168, "TREATMENT", "2014-12-17", 170], [239, "CDISCPILOT01", "QS", "01-701-1034", 5008, "ACITM08", "WORD RECOGNITION", "ADAS-COG", "", "3", "", "3", 3, "", "", "", "Y", "", 3.0, "BASELINE", 1, "TREATMENT", "2014-07-01", 1], [240, "CDISCPILOT01", "QS", "01-701-1034", 5023, "ACITM08", "WORD RECOGNITION", "ADAS-COG", "", "4", "", "4", 4, "", "", "", "", "", 8.0, "WEEK 8", 56, "TREATMENT", "2014-08-26", 57], [241, "CDISCPILOT01", "QS", "01-701-1034", 5038, "ACITM08", "WORD RECOGNITION", "ADAS-COG", "", "4", "", "4", 4, "", "", "", "", "", 10.0, "WEEK 16", 112, "TREATMENT", "2014-10-21", 113], [242, "CDISCPILOT01", "QS", "01-701-1034", 5053, "ACITM08", "WORD RECOGNITION", "ADAS-COG", "", "2", "", "2", 2, "", "", "", "", "", 12.0, "WEEK 24", 168, "TREATMENT", "2014-12-17", 170], [243, "CDISCPILOT01", "QS", "01-701-1034", 5009, "ACITM09", "ATTENTION/VISUAL SEARCH TASK", "ADAS-COG", "", "20", "", "20", 20, "", "", "", "Y", "", 3.0, "BASELINE", 1, "TREATMENT", "2014-07-01", 1], [244, "CDISCPILOT01", "QS", "01-701-1034", 5024, "ACITM09", "ATTENTION/VISUAL SEARCH TASK", "ADAS-COG", "", "20", "", "20", 20, "", "", "", "", "", 8.0, "WEEK 8", 56, "TREATMENT", "2014-08-26", 57], [245, "CDISCPILOT01", "QS", "01-701-1034", 5039, "ACITM09", "ATTENTION/VISUAL SEARCH TASK", "ADAS-COG", "", "27", "", "27", 27, "", "", "", "", "", 10.0, "WEEK 16", 112, "TREATMENT", "2014-10-21", 113], [246, "CDISCPILOT01", "QS", "01-701-1034", 5054, "ACITM09", "ATTENTION/VISUAL SEARCH TASK", "ADAS-COG", "", "31", "", "31", 31, "", "", "", "", "", 12.0, "WEEK 24", 168, "TREATMENT", "2014-12-17", 170], [247, "CDISCPILOT01", "QS", "01-701-1034", 5010, "ACITM10", "MAZE SOLUTION", "ADAS-COG", "", "5", "sec", "5", 5, "sec", "", "", "Y", "", 3.0, "BASELINE", 1, "TREATMENT", "2014-07-01", 1], [248, "CDISCPILOT01", "QS", "01-701-1034", 5025, "ACITM10", "MAZE SOLUTION", "ADAS-COG", "", "4", "sec", "4", 4, "sec", "", "", "", "", 8.0, "WEEK 8", 56, "TREATMENT", "2014-08-26", 57], [249, "CDISCPILOT01", "QS", "01-701-1034", 5040, "ACITM10", "MAZE SOLUTION", "ADAS-COG", "", "5", "sec", "5", 5, "sec", "", "", "", "", 10.0, "WEEK 16", 112, "TREATMENT", "2014-10-21", 113], [250, "CDISCPILOT01", "QS", "01-701-1034", 5055, "ACITM10", "MAZE SOLUTION", "ADAS-COG", "", "7", "sec", "7", 7, "sec", "", "", "", "", 12.0, "WEEK 24", 168, "TREATMENT", "2014-12-17", 170], [251, "CDISCPILOT01", "QS", "01-701-1034", 5011, "ACITM11", "SPOKEN LANGUAGE ABILITY", "ADAS-COG", "", "0", "", "0", 0, "", "", "", "Y", "", 3.0, "BASELINE", 1, "TREATMENT", "2014-07-01", 1], [252, "CDISCPILOT01", "QS", "01-701-1034", 5026, "ACITM11", "SPOKEN LANGUAGE ABILITY", "ADAS-COG", "", "0", "", "0", 0, "", "", "", "", "", 8.0, "WEEK 8", 56, "TREATMENT", "2014-08-26", 57], [253, "CDISCPILOT01", "QS", "01-701-1034", 5041, "ACITM11", "SPOKEN LANGUAGE ABILITY", "ADAS-COG", "", "0", "", "0", 0, "", "", "", "", "", 10.0, "WEEK 16", 112, "TREATMENT", "2014-10-21", 113], [254, "CDISCPILOT01", "QS", "01-701-1034", 5056, "ACITM11", "SPOKEN LANGUAGE ABILITY", "ADAS-COG", "", "0", "", "0", 0, "", "", "", "", "", 12.0, "WEEK 24", 168, "TREATMENT", "2014-12-17", 170], [255, "CDISCPILOT01", "QS", "01-701-1034", 5012, "ACITM12", "COMPREHENSION OF SPOKEN LANGUAGE", "ADAS-COG", "", "0", "", "0", 0, "", "", "", "Y", "", 3.0, "BASELINE", 1, "TREATMENT", "2014-07-01", 1], [256, "CDISCPILOT01", "QS", "01-701-1034", 5027, "ACITM12", "COMPREHENSION OF SPOKEN LANGUAGE", "ADAS-COG", "", "0", "", "0", 0, "", "", "", "", "", 8.0, "WEEK 8", 56, "TREATMENT", "2014-08-26", 57], [257, "CDISCPILOT01", "QS", "01-701-1034", 5042, "ACITM12", "COMPREHENSION OF SPOKEN LANGUAGE", "ADAS-COG", "", "0", "", "0", 0, "", "", "", "", "", 10.0, "WEEK 16", 112, "TREATMENT", "2014-10-21", 113], [258, "CDISCPILOT01", "QS", "01-701-1034", 5057, "ACITM12", "COMPREHENSION OF SPOKEN LANGUAGE", "ADAS-COG", "", "0", "", "0", 0, "", "", "", "", "", 12.0, "WEEK 24", 168, "TREATMENT", "2014-12-17", 170], [259, "CDISCPILOT01", "QS", "01-701-1034", 5013, "ACITM13", "WORD FINDING DIFFICULTY IN SPONTANEOUS S", "ADAS-COG", "", "0", "", "0", 0, "", "", "", "Y", "", 3.0, "BASELINE", 1, "TREATMENT", "2014-07-01", 1], [260, "CDISCPILOT01", "QS", "01-701-1034", 5028, "ACITM13", "WORD FINDING DIFFICULTY IN SPONTANEOUS S", "ADAS-COG", "", "1", "", "1", 1, "", "", "", "", "", 8.0, "WEEK 8", 56, "TREATMENT", "2014-08-26", 57], [261, "CDISCPILOT01", "QS", "01-701-1034", 5043, "ACITM13", "WORD FINDING DIFFICULTY IN SPONTANEOUS S", "ADAS-COG", "", "0", "", "0", 0, "", "", "", "", "", 10.0, "WEEK 16", 112, "TREATMENT", "2014-10-21", 113], [262, "CDISCPILOT01", "QS", "01-701-1034", 5058, "ACITM13", "WORD FINDING DIFFICULTY IN SPONTANEOUS S", "ADAS-COG", "", "0", "", "0", 0, "", "", "", "", "", 12.0, "WEEK 24", 168, "TREATMENT", "2014-12-17", 170], [263, "CDISCPILOT01", "QS", "01-701-1034", 5014, "ACITM14", "RECALL OF TEST INSTRUCTIONS", "ADAS-COG", "", "0", "", "0", 0, "", "", "", "Y", "", 3.0, "BASELINE", 1, "TREATMENT", "2014-07-01", 1], [264, "CDISCPILOT01", "QS", "01-701-1034", 5029, "ACITM14", "RECALL OF TEST INSTRUCTIONS", "ADAS-COG", "", "0", "", "0", 0, "", "", "", "", "", 8.0, "WEEK 8", 56, "TREATMENT", "2014-08-26", 57], [265, "CDISCPILOT01", "QS", "01-701-1034", 5044, "ACITM14", "RECALL OF TEST INSTRUCTIONS", "ADAS-COG", "", "0", "", "0", 0, "", "", "", "", "", 10.0, "WEEK 16", 112, "TREATMENT", "2014-10-21", 113], [266, "CDISCPILOT01", "QS", "01-701-1034", 5059, "ACITM14", "RECALL OF TEST INSTRUCTIONS", "ADAS-COG", "", "0", "", "0", 0, "", "", "", "", "", 12.0, "WEEK 24", 168, "TREATMENT", "2014-12-17", 170], [267, "CDISCPILOT01", "QS", "01-701-1034", 5015, "ACTOT", "ADAS-COG(11) Subscore", "ADAS-COG", "", "", "", "11", 11, "", "", "", "Y", "Y", 3.0, "BASELINE", 1, "TREATMENT", "2014-07-01", 1], [268, "CDISCPILOT01", "QS", "01-701-1034", 5030, "ACTOT", "ADAS-COG(11) Subscore", "ADAS-COG", "", "", "", "12", 12, "", "", "", "", "Y", 8.0, "WEEK 8", 56, "TREATMENT", "2014-08-26", 57], [269, "CDISCPILOT01", "QS", "01-701-1034", 5045, "ACTOT", "ADAS-COG(11) Subscore", "ADAS-COG", "", "", "", "14", 14, "", "", "", "", "Y", 10.0, "WEEK 16", 112, "TREATMENT", "2014-10-21", 113], [270, "CDISCPILOT01", "QS", "01-701-1034", 5060, "ACTOT", "ADAS-COG(11) Subscore", "ADAS-COG", "", "", "", "11", 11, "", "", "", "", "Y", 12.0, "WEEK 24", 168, "TREATMENT", "2014-12-17", 170], [271, "CDISCPILOT01", "QS", "01-701-1047", 5001, "ACITM01", "WORD RECALL TASK", "ADAS-COG", "", "6", "", "6", 6, "", "", "", "Y", "", 3.0, "BASELINE", 1, "TREATMENT", "2013-02-12", 1], [272, "CDISCPILOT01", "QS", "01-701-1047", 5016, "ACITM01", "WORD RECALL TASK", "ADAS-COG", "", "7", "", "7", 7, "", "", "", "", "", 6.0, "AMBUL ECG REMOVAL", 30, "TREATMENT", "2013-03-29", 46], [273, "CDISCPILOT01", "QS", "01-701-1047", 5031, "ACITM01", "WORD RECALL TASK", "ADAS-COG", "", "7", "", "7", 7, "", "", "", "", "", 201.0, "RETRIEVAL", 168, "TREATMENT", "2013-07-28", 167], [274, "CDISCPILOT01", "QS", "01-701-1047", 5002, "ACITM02", "NAMING OBJECTS AND FINGERS (REFER TO 5 C", "ADAS-COG", "", "0", "", "0", 0, "", "", "", "Y", "", 3.0, "BASELINE", 1, "TREATMENT", "2013-02-12", 1], [275, "CDISCPILOT01", "QS", "01-701-1047", 5017, "ACITM02", "NAMING OBJECTS AND FINGERS (REFER TO 5 C", "ADAS-COG", "", "0", "", "0", 0, "", "", "", "", "", 6.0, "AMBUL ECG REMOVAL", 30, "TREATMENT", "2013-03-29", 46], [276, "CDISCPILOT01", "QS", "01-701-1047", 5032, "ACITM02", "NAMING OBJECTS AND FINGERS (REFER TO 5 C", "ADAS-COG", "", "0", "", "0", 0, "", "", "", "", "", 201.0, "RETRIEVAL", 168, "TREATMENT", "2013-07-28", 167], [277, "CDISCPILOT01", "QS", "01-701-1047", 5003, "ACITM03", "DELAYED WORD RECALL", "ADAS-COG", "", "10", "", "10", 10, "", "", "", "Y", "", 3.0, "BASELINE", 1, "TREATMENT", "2013-02-12", 1], [278, "CDISCPILOT01", "QS", "01-701-1047", 5018, "ACITM03", "DELAYED WORD RECALL", "ADAS-COG", "", "10", "", "10", 10, "", "", "", "", "", 6.0, "AMBUL ECG REMOVAL", 30, "TREATMENT", "2013-03-29", 46], [279, "CDISCPILOT01", "QS", "01-701-1047", 5033, "ACITM03", "DELAYED WORD RECALL", "ADAS-COG", "", "10", "", "10", 10, "", "", "", "", "", 201.0, "RETRIEVAL", 168, "TREATMENT", "2013-07-28", 167], [280, "CDISCPILOT01", "QS", "01-701-1047", 5004, "ACITM04", "COMMANDS", "ADAS-COG", "", "0", "", "0", 0, "", "", "", "Y", "", 3.0, "BASELINE", 1, "TREATMENT", "2013-02-12", 1], [281, "CDISCPILOT01", "QS", "01-701-1047", 5019, "ACITM04", "COMMANDS", "ADAS-COG", "", "0", "", "0", 0, "", "", "", "", "", 6.0, "AMBUL ECG REMOVAL", 30, "TREATMENT", "2013-03-29", 46], [282, "CDISCPILOT01", "QS", "01-701-1047", 5034, "ACITM04", "COMMANDS", "ADAS-COG", "", "0", "", "0", 0, "", "", "", "", "", 201.0, "RETRIEVAL", 168, "TREATMENT", "2013-07-28", 167], [283, "CDISCPILOT01", "QS", "01-701-1047", 5005, "ACITM05", "CONSTRUCTIONAL PRAXIS", "ADAS-COG", "", "1", "", "1", 1, "", "", "", "Y", "", 3.0, "BASELINE", 1, "TREATMENT", "2013-02-12", 1], [284, "CDISCPILOT01", "QS", "01-701-1047", 5020, "ACITM05", "CONSTRUCTIONAL PRAXIS", "ADAS-COG", "", "0", "", "0", 0, "", "", "", "", "", 6.0, "AMBUL ECG REMOVAL", 30, "TREATMENT", "2013-03-29", 46], [285, "CDISCPILOT01", "QS", "01-701-1047", 5035, "ACITM05", "CONSTRUCTIONAL PRAXIS", "ADAS-COG", "", "1", "", "1", 1, "", "", "", "", "", 201.0, "RETRIEVAL", 168, "TREATMENT", "2013-07-28", 167], [286, "CDISCPILOT01", "QS", "01-701-1047", 5006, "ACITM06", "IDEATIONAL PRAXIS", "ADAS-COG", "", "0", "", "0", 0, "", "", "", "Y", "", 3.0, "BASELINE", 1, "TREATMENT", "2013-02-12", 1], [287, "CDISCPILOT01", "QS", "01-701-1047", 5021, "ACITM06", "IDEATIONAL PRAXIS", "ADAS-COG", "", "1", "", "1", 1, "", "", "", "", "", 6.0, "AMBUL ECG REMOVAL", 30, "TREATMENT", "2013-03-29", 46], [288, "CDISCPILOT01", "QS", "01-701-1047", 5036, "ACITM06", "IDEATIONAL PRAXIS", "ADAS-COG", "", "0", "", "0", 0, "", "", "", "", "", 201.0, "RETRIEVAL", 168, "TREATMENT", "2013-07-28", 167], [289, "CDISCPILOT01", "QS", "01-701-1047", 5007, "ACITM07", "ORIENTATION", "ADAS-COG", "", "0", "", "0", 0, "", "", "", "Y", "", 3.0, "BASELINE", 1, "TREATMENT", "2013-02-12", 1], [290, "CDISCPILOT01", "QS", "01-701-1047", 5022, "ACITM07", "ORIENTATION", "ADAS-COG", "", "1", "", "1", 1, "", "", "", "", "", 6.0, "AMBUL ECG REMOVAL", 30, "TREATMENT", "2013-03-29", 46], [291, "CDISCPILOT01", "QS", "01-701-1047", 5037, "ACITM07", "ORIENTATION", "ADAS-COG", "", "2", "", "2", 2, "", "", "", "", "", 201.0, "RETRIEVAL", 168, "TREATMENT", "2013-07-28", 167], [292, "CDISCPILOT01", "QS", "01-701-1047", 5008, "ACITM08", "WORD RECOGNITION", "ADAS-COG", "", "3", "", "3", 3, "", "", "", "Y", "", 3.0, "BASELINE", 1, "TREATMENT", "2013-02-12", 1], [293, "CDISCPILOT01", "QS", "01-701-1047", 5023, "ACITM08", "WORD RECOGNITION", "ADAS-COG", "", "5", "", "5", 5, "", "", "", "", "", 6.0, "AMBUL ECG REMOVAL", 30, "TREATMENT", "2013-03-29", 46], [294, "CDISCPILOT01", "QS", "01-701-1047", 5038, "ACITM08", "WORD RECOGNITION", "ADAS-COG", "", "3", "", "3", 3, "", "", "", "", "", 201.0, "RETRIEVAL", 168, "TREATMENT", "2013-07-28", 167], [295, "CDISCPILOT01", "QS", "01-701-1047", 5009, "ACITM09", "ATTENTION/VISUAL SEARCH TASK", "ADAS-COG", "", "26", "", "26", 26, "", "", "", "Y", "", 3.0, "BASELINE", 1, "TREATMENT", "2013-02-12", 1], [296, "CDISCPILOT01", "QS", "01-701-1047", 5024, "ACITM09", "ATTENTION/VISUAL SEARCH TASK", "ADAS-COG", "", "37", "", "37", 37, "", "", "", "", "", 6.0, "AMBUL ECG REMOVAL", 30, "TREATMENT", "2013-03-29", 46], [297, "CDISCPILOT01", "QS", "01-701-1047", 5039, "ACITM09", "ATTENTION/VISUAL SEARCH TASK", "ADAS-COG", "", "33", "", "33", 33, "", "", "", "", "", 201.0, "RETRIEVAL", 168, "TREATMENT", "2013-07-28", 167], [298, "CDISCPILOT01", "QS", "01-701-1047", 5010, "ACITM10", "MAZE SOLUTION", "ADAS-COG", "", "7", "sec", "7", 7, "sec", "", "", "Y", "", 3.0, "BASELINE", 1, "TREATMENT", "2013-02-12", 1], [299, "CDISCPILOT01", "QS", "01-701-1047", 5025, "ACITM10", "MAZE SOLUTION", "ADAS-COG", "", "5", "sec", "5", 5, "sec", "", "", "", "", 6.0, "AMBUL ECG REMOVAL", 30, "TREATMENT", "2013-03-29", 46], [300, "CDISCPILOT01", "QS", "01-701-1047", 5040, "ACITM10", "MAZE SOLUTION", "ADAS-COG", "", "5", "sec", "5", 5, "sec", "", "", "", "", 201.0, "RETRIEVAL", 168, "TREATMENT", "2013-07-28", 167], [301, "CDISCPILOT01", "QS", "01-701-1047", 5011, "ACITM11", "SPOKEN LANGUAGE ABILITY", "ADAS-COG", "", "0", "", "0", 0, "", "", "", "Y", "", 3.0, "BASELINE", 1, "TREATMENT", "2013-02-12", 1], [302, "CDISCPILOT01", "QS", "01-701-1047", 5026, "ACITM11", "SPOKEN LANGUAGE ABILITY", "ADAS-COG", "", "0", "", "0", 0, "", "", "", "", "", 6.0, "AMBUL ECG REMOVAL", 30, "TREATMENT", "2013-03-29", 46], [303, "CDISCPILOT01", "QS", "01-701-1047", 5041, "ACITM11", "SPOKEN LANGUAGE ABILITY", "ADAS-COG", "", "1", "", "1", 1, "", "", "", "", "", 201.0, "RETRIEVAL", 168, "TREATMENT", "2013-07-28", 167], [304, "CDISCPILOT01", "QS", "01-701-1047", 5012, "ACITM12", "COMPREHENSION OF SPOKEN LANGUAGE", "ADAS-COG", "", "0", "", "0", 0, "", "", "", "Y", "", 3.0, "BASELINE", 1, "TREATMENT", "2013-02-12", 1], [305, "CDISCPILOT01", "QS", "01-701-1047", 5027, "ACITM12", "COMPREHENSION OF SPOKEN LANGUAGE", "ADAS-COG", "", "0", "", "0", 0, "", "", "", "", "", 6.0, "AMBUL ECG REMOVAL", 30, "TREATMENT", "2013-03-29", 46], [306, "CDISCPILOT01", "QS", "01-701-1047", 5042, "ACITM12", "COMPREHENSION OF SPOKEN LANGUAGE", "ADAS-COG", "", "2", "", "2", 2, "", "", "", "", "", 201.0, "RETRIEVAL", 168, "TREATMENT", "2013-07-28", 167], [307, "CDISCPILOT01", "QS", "01-701-1047", 5013, "ACITM13", "WORD FINDING DIFFICULTY IN SPONTANEOUS S", "ADAS-COG", "", "0", "", "0", 0, "", "", "", "Y", "", 3.0, "BASELINE", 1, "TREATMENT", "2013-02-12", 1], [308, "CDISCPILOT01", "QS", "01-701-1047", 5028, "ACITM13", "WORD FINDING DIFFICULTY IN SPONTANEOUS S", "ADAS-COG", "", "0", "", "0", 0, "", "", "", "", "", 6.0, "AMBUL ECG REMOVAL", 30, "TREATMENT", "2013-03-29", 46], [309, "CDISCPILOT01", "QS", "01-701-1047", 5043, "ACITM13", "WORD FINDING DIFFICULTY IN SPONTANEOUS S", "ADAS-COG", "", "1", "", "1", 1, "", "", "", "", "", 201.0, "RETRIEVAL", 168, "TREATMENT", "2013-07-28", 167], [310, "CDISCPILOT01", "QS", "01-701-1047", 5014, "ACITM14", "RECALL OF TEST INSTRUCTIONS", "ADAS-COG", "", "0", "", "0", 0, "", "", "", "Y", "", 3.0, "BASELINE", 1, "TREATMENT", "2013-02-12", 1], [311, "CDISCPILOT01", "QS", "01-701-1047", 5029, "ACITM14", "RECALL OF TEST INSTRUCTIONS", "ADAS-COG", "", "0", "", "0", 0, "", "", "", "", "", 6.0, "AMBUL ECG REMOVAL", 30, "TREATMENT", "2013-03-29", 46], [312, "CDISCPILOT01", "QS", "01-701-1047", 5044, "ACITM14", "RECALL OF TEST INSTRUCTIONS", "ADAS-COG", "", "2", "", "2", 2, "", "", "", "", "", 201.0, "RETRIEVAL", 168, "TREATMENT", "2013-07-28", 167], [313, "CDISCPILOT01", "QS", "01-701-1047", 5015, "ACTOT", "ADAS-COG(11) Subscore", "ADAS-COG", "", "", "", "10", 10, "", "", "", "Y", "Y", 3.0, "BASELINE", 1, "TREATMENT", "2013-02-12", 1], [314, "CDISCPILOT01", "QS", "01-701-1047", 5030, "ACTOT", "ADAS-COG(11) Subscore", "ADAS-COG", "", "", "", "14", 14, "", "", "", "", "Y", 6.0, "AMBUL ECG REMOVAL", 30, "TREATMENT", "2013-03-29", 46], [315, "CDISCPILOT01", "QS", "01-701-1047", 5045, "ACTOT", "ADAS-COG(11) Subscore", "ADAS-COG", "", "", "", "19", 19, "", "", "", "", "Y", 201.0, "RETRIEVAL", 168, "TREATMENT", "2013-07-28", 167], [316, "CDISCPILOT01", "QS", "01-701-1097", 5001, "ACITM01", "WORD RECALL TASK", "ADAS-COG", "", "10", "", "10", 10, "", "", "", "Y", "", 3.0, "BASELINE", 1, "TREATMENT", "2014-01-01", 1], [317, "CDISCPILOT01", "QS", "01-701-1097", 5016, "ACITM01", "WORD RECALL TASK", "ADAS-COG", "", "9", "", "9", 9, "", "", "", "", "", 8.0, "WEEK 8", 56, "TREATMENT", "2014-02-26", 57], [318, "CDISCPILOT01", "QS", "01-701-1097", 5031, "ACITM01", "WORD RECALL TASK", "ADAS-COG", "", "9", "", "9", 9, "", "", "", "", "", 10.0, "WEEK 16", 112, "TREATMENT", "2014-04-23", 113], [319, "CDISCPILOT01", "QS", "01-701-1097", 5046, "ACITM01", "WORD RECALL TASK", "ADAS-COG", "", "9", "", "9", 9, "", "", "", "", "", 12.0, "WEEK 24", 168, "TREATMENT", "2014-06-18", 169], [320, "CDISCPILOT01", "QS", "01-701-1097", 5002, "ACITM02", "NAMING OBJECTS AND FINGERS (REFER TO 5 C", "ADAS-COG", "", "5", "", "5", 5, "", "", "", "Y", "", 3.0, "BASELINE", 1, "TREATMENT", "2014-01-01", 1], [321, "CDISCPILOT01", "QS", "01-701-1097", 5017, "ACITM02", "NAMING OBJECTS AND FINGERS (REFER TO 5 C", "ADAS-COG", "", "5", "", "5", 5, "", "", "", "", "", 8.0, "WEEK 8", 56, "TREATMENT", "2014-02-26", 57], [322, "CDISCPILOT01", "QS", "01-701-1097", 5032, "ACITM02", "NAMING OBJECTS AND FINGERS (REFER TO 5 C", "ADAS-COG", "", "5", "", "5", 5, "", "", "", "", "", 10.0, "WEEK 16", 112, "TREATMENT", "2014-04-23", 113], [323, "CDISCPILOT01", "QS", "01-701-1097", 5047, "ACITM02", "NAMING OBJECTS AND FINGERS (REFER TO 5 C", "ADAS-COG", "", "5", "", "5", 5, "", "", "", "", "", 12.0, "WEEK 24", 168, "TREATMENT", "2014-06-18", 169], [324, "CDISCPILOT01", "QS", "01-701-1097", 5003, "ACITM03", "DELAYED WORD RECALL", "ADAS-COG", "", "10", "", "10", 10, "", "", "", "Y", "", 3.0, "BASELINE", 1, "TREATMENT", "2014-01-01", 1], [325, "CDISCPILOT01", "QS", "01-701-1097", 5018, "ACITM03", "DELAYED WORD RECALL", "ADAS-COG", "", "10", "", "10", 10, "", "", "", "", "", 8.0, "WEEK 8", 56, "TREATMENT", "2014-02-26", 57], [326, "CDISCPILOT01", "QS", "01-701-1097", 5033, "ACITM03", "DELAYED WORD RECALL", "ADAS-COG", "", "10", "", "10", 10, "", "", "", "", "", 10.0, "WEEK 16", 112, "TREATMENT", "2014-04-23", 113], [327, "CDISCPILOT01", "QS", "01-701-1097", 5048, "ACITM03", "DELAYED WORD RECALL", "ADAS-COG", "", "10", "", "10", 10, "", "", "", "", "", 12.0, "WEEK 24", 168, "TREATMENT", "2014-06-18", 169], [328, "CDISCPILOT01", "QS", "01-701-1097", 5004, "ACITM04", "COMMANDS", "ADAS-COG", "", "3", "", "3", 3, "", "", "", "Y", "", 3.0, "BASELINE", 1, "TREATMENT", "2014-01-01", 1], [329, "CDISCPILOT01", "QS", "01-701-1097", 5019, "ACITM04", "COMMANDS", "ADAS-COG", "", "1", "", "1", 1, "", "", "", "", "", 8.0, "WEEK 8", 56, "TREATMENT", "2014-02-26", 57], [330, "CDISCPILOT01", "QS", "01-701-1097", 5034, "ACITM04", "COMMANDS", "ADAS-COG", "", "1", "", "1", 1, "", "", "", "", "", 10.0, "WEEK 16", 112, "TREATMENT", "2014-04-23", 113], [331, "CDISCPILOT01", "QS", "01-701-1097", 5049, "ACITM04", "COMMANDS", "ADAS-COG", "", "3", "", "3", 3, "", "", "", "", "", 12.0, "WEEK 24", 168, "TREATMENT", "2014-06-18", 169], [332, "CDISCPILOT01", "QS", "01-701-1097", 5005, "ACITM05", "CONSTRUCTIONAL PRAXIS", "ADAS-COG", "", "4", "", "4", 4, "", "", "", "Y", "", 3.0, "BASELINE", 1, "TREATMENT", "2014-01-01", 1], [333, "CDISCPILOT01", "QS", "01-701-1097", 5020, "ACITM05", "CONSTRUCTIONAL PRAXIS", "ADAS-COG", "", "3", "", "3", 3, "", "", "", "", "", 8.0, "WEEK 8", 56, "TREATMENT", "2014-02-26", 57], [334, "CDISCPILOT01", "QS", "01-701-1097", 5035, "ACITM05", "CONSTRUCTIONAL PRAXIS", "ADAS-COG", "", "4", "", "4", 4, "", "", "", "", "", 10.0, "WEEK 16", 112, "TREATMENT", "2014-04-23", 113], [335, "CDISCPILOT01", "QS", "01-701-1097", 5050, "ACITM05", "CONSTRUCTIONAL PRAXIS", "ADAS-COG", "", "2", "", "2", 2, "", "", "", "", "", 12.0, "WEEK 24", 168, "TREATMENT", "2014-06-18", 169], [336, "CDISCPILOT01", "QS", "01-701-1097", 5006, "ACITM06", "IDEATIONAL PRAXIS", "ADAS-COG", "", "5", "", "5", 5, "", "", "", "Y", "", 3.0, "BASELINE", 1, "TREATMENT", "2014-01-01", 1], [337, "CDISCPILOT01", "QS", "01-701-1097", 5021, "ACITM06", "IDEATIONAL PRAXIS", "ADAS-COG", "", "4", "", "4", 4, "", "", "", "", "", 8.0, "WEEK 8", 56, "TREATMENT", "2014-02-26", 57], [338, "CDISCPILOT01", "QS", "01-701-1097", 5036, "ACITM06", "IDEATIONAL PRAXIS", "ADAS-COG", "", "4", "", "4", 4, "", "", "", "", "", 10.0, "WEEK 16", 112, "TREATMENT", "2014-04-23", 113], [339, "CDISCPILOT01", "QS", "01-701-1097", 5051, "ACITM06", "IDEATIONAL PRAXIS", "ADAS-COG", "", "5", "", "5", 5, "", "", "", "", "", 12.0, "WEEK 24", 168, "TREATMENT", "2014-06-18", 169], [340, "CDISCPILOT01", "QS", "01-701-1097", 5007, "ACITM07", "ORIENTATION", "ADAS-COG", "", "7", "", "7", 7, "", "", "", "Y", "", 3.0, "BASELINE", 1, "TREATMENT", "2014-01-01", 1], [341, "CDISCPILOT01", "QS", "01-701-1097", 5022, "ACITM07", "ORIENTATION", "ADAS-COG", "", "7", "", "7", 7, "", "", "", "", "", 8.0, "WEEK 8", 56, "TREATMENT", "2014-02-26", 57], [342, "CDISCPILOT01", "QS", "01-701-1097", 5037, "ACITM07", "ORIENTATION", "ADAS-COG", "", "7", "", "7", 7, "", "", "", "", "", 10.0, "WEEK 16", 112, "TREATMENT", "2014-04-23", 113], [343, "CDISCPILOT01", "QS", "01-701-1097", 5052, "ACITM07", "ORIENTATION", "ADAS-COG", "", "7", "", "7", 7, "", "", "", "", "", 12.0, "WEEK 24", 168, "TREATMENT", "2014-06-18", 169], [344, "CDISCPILOT01", "QS", "01-701-1097", 5008, "ACITM08", "WORD RECOGNITION", "ADAS-COG", "", "", "", "", null, "", "NOT DONE", "REFUSED TO ANSWER", "Y", "", 3.0, "BASELINE", 1, "TREATMENT", "2014-01-01", 1], [345, "CDISCPILOT01", "QS", "01-701-1097", 5023, "ACITM08", "WORD RECOGNITION", "ADAS-COG", "", "12", "", "12", 12, "", "", "", "", "", 8.0, "WEEK 8", 56, "TREATMENT", "2014-02-26", 57], [346, "CDISCPILOT01", "QS", "01-701-1097", 5038, "ACITM08", "WORD RECOGNITION", "ADAS-COG", "", "10", "", "10", 10, "", "", "", "", "", 10.0, "WEEK 16", 112, "TREATMENT", "2014-04-23", 113], [347, "CDISCPILOT01", "QS", "01-701-1097", 5053, "ACITM08", "WORD RECOGNITION", "ADAS-COG", "", "9", "", "9", 9, "", "", "", "", "", 12.0, "WEEK 24", 168, "TREATMENT", "2014-06-18", 169], [348, "CDISCPILOT01", "QS", "01-701-1097", 5009, "ACITM09", "ATTENTION/VISUAL SEARCH TASK", "ADAS-COG", "", "0", "", "0", 0, "", "", "", "Y", "", 3.0, "BASELINE", 1, "TREATMENT", "2014-01-01", 1], [349, "CDISCPILOT01", "QS", "01-701-1097", 5024, "ACITM09", "ATTENTION/VISUAL SEARCH TASK", "ADAS-COG", "", "5", "", "5", 5, "", "", "", "", "", 8.0, "WEEK 8", 56, "TREATMENT", "2014-02-26", 57], [350, "CDISCPILOT01", "QS", "01-701-1097", 5039, "ACITM09", "ATTENTION/VISUAL SEARCH TASK", "ADAS-COG", "", "4", "", "4", 4, "", "", "", "", "", 10.0, "WEEK 16", 112, "TREATMENT", "2014-04-23", 113], [351, "CDISCPILOT01", "QS", "01-701-1097", 5054, "ACITM09", "ATTENTION/VISUAL SEARCH TASK", "ADAS-COG", "", "5", "", "5", 5, "", "", "", "", "", 12.0, "WEEK 24", 168, "TREATMENT", "2014-06-18", 169], [352, "CDISCPILOT01", "QS", "01-701-1097", 5010, "ACITM10", "MAZE SOLUTION", "ADAS-COG", "", "240", "sec", "240", 240, "sec", "", "", "Y", "", 3.0, "BASELINE", 1, "TREATMENT", "2014-01-01", 1], [353, "CDISCPILOT01", "QS", "01-701-1097", 5025, "ACITM10", "MAZE SOLUTION", "ADAS-COG", "", "240", "sec", "240", 240, "sec", "", "", "", "", 8.0, "WEEK 8", 56, "TREATMENT", "2014-02-26", 57], [354, "CDISCPILOT01", "QS", "01-701-1097", 5040, "ACITM10", "MAZE SOLUTION", "ADAS-COG", "", "41", "sec", "41", 41, "sec", "", "", "", "", 10.0, "WEEK 16", 112, "TREATMENT", "2014-04-23", 113], [355, "CDISCPILOT01", "QS", "01-701-1097", 5055, "ACITM10", "MAZE SOLUTION", "ADAS-COG", "", "11", "sec", "11", 11, "sec", "", "", "", "", 12.0, "WEEK 24", 168, "TREATMENT", "2014-06-18", 169], [356, "CDISCPILOT01", "QS", "01-701-1097", 5011, "ACITM11", "SPOKEN LANGUAGE ABILITY", "ADAS-COG", "", "3", "", "3", 3, "", "", "", "Y", "", 3.0, "BASELINE", 1, "TREATMENT", "2014-01-01", 1], [357, "CDISCPILOT01", "QS", "01-701-1097", 5026, "ACITM11", "SPOKEN LANGUAGE ABILITY", "ADAS-COG", "", "3", "", "3", 3, "", "", "", "", "", 8.0, "WEEK 8", 56, "TREATMENT", "2014-02-26", 57], [358, "CDISCPILOT01", "QS", "01-701-1097", 5041, "ACITM11", "SPOKEN LANGUAGE ABILITY", "ADAS-COG", "", "3", "", "3", 3, "", "", "", "", "", 10.0, "WEEK 16", 112, "TREATMENT", "2014-04-23", 113], [359, "CDISCPILOT01", "QS", "01-701-1097", 5056, "ACITM11", "SPOKEN LANGUAGE ABILITY", "ADAS-COG", "", "2", "", "2", 2, "", "", "", "", "", 12.0, "WEEK 24", 168, "TREATMENT", "2014-06-18", 169], [360, "CDISCPILOT01", "QS", "01-701-1097", 5012, "ACITM12", "COMPREHENSION OF SPOKEN LANGUAGE", "ADAS-COG", "", "3", "", "3", 3, "", "", "", "Y", "", 3.0, "BASELINE", 1, "TREATMENT", "2014-01-01", 1], [361, "CDISCPILOT01", "QS", "01-701-1097", 5027, "ACITM12", "COMPREHENSION OF SPOKEN LANGUAGE", "ADAS-COG", "", "2", "", "2", 2, "", "", "", "", "", 8.0, "WEEK 8", 56, "TREATMENT", "2014-02-26", 57], [362, "CDISCPILOT01", "QS", "01-701-1097", 5042, "ACITM12", "COMPREHENSION OF SPOKEN LANGUAGE", "ADAS-COG", "", "2", "", "2", 2, "", "", "", "", "", 10.0, "WEEK 16", 112, "TREATMENT", "2014-04-23", 113], [363, "CDISCPILOT01", "QS", "01-701-1097", 5057, "ACITM12", "COMPREHENSION OF SPOKEN LANGUAGE", "ADAS-COG", "", "3", "", "3", 3, "", "", "", "", "", 12.0, "WEEK 24", 168, "TREATMENT", "2014-06-18", 169], [364, "CDISCPILOT01", "QS", "01-701-1097", 5013, "ACITM13", "WORD FINDING DIFFICULTY IN SPONTANEOUS S", "ADAS-COG", "", "4", "", "4", 4, "", "", "", "Y", "", 3.0, "BASELINE", 1, "TREATMENT", "2014-01-01", 1], [365, "CDISCPILOT01", "QS", "01-701-1097", 5028, "ACITM13", "WORD FINDING DIFFICULTY IN SPONTANEOUS S", "ADAS-COG", "", "4", "", "4", 4, "", "", "", "", "", 8.0, "WEEK 8", 56, "TREATMENT", "2014-02-26", 57], [366, "CDISCPILOT01", "QS", "01-701-1097", 5043, "ACITM13", "WORD FINDING DIFFICULTY IN SPONTANEOUS S", "ADAS-COG", "", "2", "", "2", 2, "", "", "", "", "", 10.0, "WEEK 16", 112, "TREATMENT", "2014-04-23", 113], [367, "CDISCPILOT01", "QS", "01-701-1097", 5058, "ACITM13", "WORD FINDING DIFFICULTY IN SPONTANEOUS S", "ADAS-COG", "", "2", "", "2", 2, "", "", "", "", "", 12.0, "WEEK 24", 168, "TREATMENT", "2014-06-18", 169], [368, "CDISCPILOT01", "QS", "01-701-1097", 5014, "ACITM14", "RECALL OF TEST INSTRUCTIONS", "ADAS-COG", "", "3", "", "3", 3, "", "", "", "Y", "", 3.0, "BASELINE", 1, "TREATMENT", "2014-01-01", 1], [369, "CDISCPILOT01", "QS", "01-701-1097", 5029, "ACITM14", "RECALL OF TEST INSTRUCTIONS", "ADAS-COG", "", "4", "", "4", 4, "", "", "", "", "", 8.0, "WEEK 8", 56, "TREATMENT", "2014-02-26", 57], [370, "CDISCPILOT01", "QS", "01-701-1097", 5044, "ACITM14", "RECALL OF TEST INSTRUCTIONS", "ADAS-COG", "", "2", "", "2", 2, "", "", "", "", "", 10.0, "WEEK 16", 112, "TREATMENT", "2014-04-23", 113], [371, "CDISCPILOT01", "QS", "01-701-1097", 5059, "ACITM14", "RECALL OF TEST INSTRUCTIONS", "ADAS-COG", "", "4", "", "4", 4, "", "", "", "", "", 12.0, "WEEK 24", 168, "TREATMENT", "2014-06-18", 169], [372, "CDISCPILOT01", "QS", "01-701-1097", 5015, "ACTOT", "ADAS-COG(11) Subscore", "ADAS-COG", "", "", "", "56.7", 56, "", "", "", "Y", "Y", 3.0, "BASELINE", 1, "TREATMENT", "2014-01-01", 1], [373, "CDISCPILOT01", "QS", "01-701-1097", 5030, "ACTOT", "ADAS-COG(11) Subscore", "ADAS-COG", "", "", "", "54", 54, "", "", "", "", "Y", 8.0, "WEEK 8", 56, "TREATMENT", "2014-02-26", 57], [374, "CDISCPILOT01", "QS", "01-701-1097", 5045, "ACTOT", "ADAS-COG(11) Subscore", "ADAS-COG", "", "", "", "49", 49, "", "", "", "", "Y", 10.0, "WEEK 16", 112, "TREATMENT", "2014-04-23", 113], [375, "CDISCPILOT01", "QS", "01-701-1097", 5060, "ACTOT", "ADAS-COG(11) Subscore", "ADAS-COG", "", "", "", "51", 51, "", "", "", "", "Y", 12.0, "WEEK 24", 168, "TREATMENT", "2014-06-18", 169], [376, "CDISCPILOT01", "QS", "01-701-1111", 5001, "ACITM01", "WORD RECALL TASK", "ADAS-COG", "", "5", "", "5", 5, "", "", "", "Y", "", 3.0, "BASELINE", 1, "TREATMENT", "2012-09-07", 1], [377, "CDISCPILOT01", "QS", "01-701-1111", 5016, "ACITM01", "WORD RECALL TASK", "ADAS-COG", "", "4", "", "4", 4, "", "", "", "", "", 4.0, "WEEK 2", 14, "TREATMENT", "2012-09-17", 11], [378, "CDISCPILOT01", "QS", "01-701-1111", 5031, "ACITM01", "WORD RECALL TASK", "ADAS-COG", "", "5", "", "5", 5, "", "", "", "", "", 201.0, "RETRIEVAL", 168, "TREATMENT", "2013-02-22", 169], [379, "CDISCPILOT01", "QS", "01-701-1111", 5002, "ACITM02", "NAMING OBJECTS AND FINGERS (REFER TO 5 C", "ADAS-COG", "", "0", "", "0", 0, "", "", "", "Y", "", 3.0, "BASELINE", 1, "TREATMENT", "2012-09-07", 1], [380, "CDISCPILOT01", "QS", "01-701-1111", 5017, "ACITM02", "NAMING OBJECTS AND FINGERS (REFER TO 5 C", "ADAS-COG", "", "0", "", "0", 0, "", "", "", "", "", 4.0, "WEEK 2", 14, "TREATMENT", "2012-09-17", 11], [381, "CDISCPILOT01", "QS", "01-701-1111", 5032, "ACITM02", "NAMING OBJECTS AND FINGERS (REFER TO 5 C", "ADAS-COG", "", "0", "", "0", 0, "", "", "", "", "", 201.0, "RETRIEVAL", 168, "TREATMENT", "2013-02-22", 169], [382, "CDISCPILOT01", "QS", "01-701-1111", 5003, "ACITM03", "DELAYED WORD RECALL", "ADAS-COG", "", "6", "", "6", 6, "", "", "", "Y", "", 3.0, "BASELINE", 1, "TREATMENT", "2012-09-07", 1], [383, "CDISCPILOT01", "QS", "01-701-1111", 5018, "ACITM03", "DELAYED WORD RECALL", "ADAS-COG", "", "4", "", "4", 4, "", "", "", "", "", 4.0, "WEEK 2", 14, "TREATMENT", "2012-09-17", 11], [384, "CDISCPILOT01", "QS", "01-701-1111", 5033, "ACITM03", "DELAYED WORD RECALL", "ADAS-COG", "", "5", "", "5", 5, "", "", "", "", "", 201.0, "RETRIEVAL", 168, "TREATMENT", "2013-02-22", 169], [385, "CDISCPILOT01", "QS", "01-701-1111", 5004, "ACITM04", "COMMANDS", "ADAS-COG", "", "0", "", "0", 0, "", "", "", "Y", "", 3.0, "BASELINE", 1, "TREATMENT", "2012-09-07", 1], [386, "CDISCPILOT01", "QS", "01-701-1111", 5019, "ACITM04", "COMMANDS", "ADAS-COG", "", "0", "", "0", 0, "", "", "", "", "", 4.0, "WEEK 2", 14, "TREATMENT", "2012-09-17", 11], [387, "CDISCPILOT01", "QS", "01-701-1111", 5034, "ACITM04", "COMMANDS", "ADAS-COG", "", "0", "", "0", 0, "", "", "", "", "", 201.0, "RETRIEVAL", 168, "TREATMENT", "2013-02-22", 169], [388, "CDISCPILOT01", "QS", "01-701-1111", 5005, "ACITM05", "CONSTRUCTIONAL PRAXIS", "ADAS-COG", "", "0", "", "0", 0, "", "", "", "Y", "", 3.0, "BASELINE", 1, "TREATMENT", "2012-09-07", 1], [389, "CDISCPILOT01", "QS", "01-701-1111", 5020, "ACITM05", "CONSTRUCTIONAL PRAXIS", "ADAS-COG", "", "0", "", "0", 0, "", "", "", "", "", 4.0, "WEEK 2", 14, "TREATMENT", "2012-09-17", 11], [390, "CDISCPILOT01", "QS", "01-701-1111", 5035, "ACITM05", "CONSTRUCTIONAL PRAXIS", "ADAS-COG", "", "0", "", "0", 0, "", "", "", "", "", 201.0, "RETRIEVAL", 168, "TREATMENT", "2013-02-22", 169], [391, "CDISCPILOT01", "QS", "01-701-1111", 5006, "ACITM06", "IDEATIONAL PRAXIS", "ADAS-COG", "", "1", "", "1", 1, "", "", "", "Y", "", 3.0, "BASELINE", 1, "TREATMENT", "2012-09-07", 1], [392, "CDISCPILOT01", "QS", "01-701-1111", 5021, "ACITM06", "IDEATIONAL PRAXIS", "ADAS-COG", "", "0", "", "0", 0, "", "", "", "", "", 4.0, "WEEK 2", 14, "TREATMENT", "2012-09-17", 11], [393, "CDISCPILOT01", "QS", "01-701-1111", 5036, "ACITM06", "IDEATIONAL PRAXIS", "ADAS-COG", "", "0", "", "0", 0, "", "", "", "", "", 201.0, "RETRIEVAL", 168, "TREATMENT", "2013-02-22", 169], [394, "CDISCPILOT01", "QS", "01-701-1111", 5007, "ACITM07", "ORIENTATION", "ADAS-COG", "", "0", "", "0", 0, "", "", "", "Y", "", 3.0, "BASELINE", 1, "TREATMENT", "2012-09-07", 1], [395, "CDISCPILOT01", "QS", "01-701-1111", 5022, "ACITM07", "ORIENTATION", "ADAS-COG", "", "0", "", "0", 0, "", "", "", "", "", 4.0, "WEEK 2", 14, "TREATMENT", "2012-09-17", 11], [396, "CDISCPILOT01", "QS", "01-701-1111", 5037, "ACITM07", "ORIENTATION", "ADAS-COG", "", "1", "", "1", 1, "", "", "", "", "", 201.0, "RETRIEVAL", 168, "TREATMENT", "2013-02-22", 169], [397, "CDISCPILOT01", "QS", "01-701-1111", 5008, "ACITM08", "WORD RECOGNITION", "ADAS-COG", "", "1", "", "1", 1, "", "", "", "Y", "", 3.0, "BASELINE", 1, "TREATMENT", "2012-09-07", 1], [398, "CDISCPILOT01", "QS", "01-701-1111", 5023, "ACITM08", "WORD RECOGNITION", "ADAS-COG", "", "1", "", "1", 1, "", "", "", "", "", 4.0, "WEEK 2", 14, "TREATMENT", "2012-09-17", 11], [399, "CDISCPILOT01", "QS", "01-701-1111", 5038, "ACITM08", "WORD RECOGNITION", "ADAS-COG", "", "3", "", "3", 3, "", "", "", "", "", 201.0, "RETRIEVAL", 168, "TREATMENT", "2013-02-22", 169], [400, "CDISCPILOT01", "QS", "01-701-1111", 5009, "ACITM09", "ATTENTION/VISUAL SEARCH TASK", "ADAS-COG", "", "31", "", "31", 31, "", "", "", "Y", "", 3.0, "BASELINE", 1, "TREATMENT", "2012-09-07", 1], [401, "CDISCPILOT01", "QS", "01-701-1111", 5024, "ACITM09", "ATTENTION/VISUAL SEARCH TASK", "ADAS-COG", "", "24", "", "24", 24, "", "", "", "", "", 4.0, "WEEK 2", 14, "TREATMENT", "2012-09-17", 11], [402, "CDISCPILOT01", "QS", "01-701-1111", 5039, "ACITM09", "ATTENTION/VISUAL SEARCH TASK", "ADAS-COG", "", "31", "", "31", 31, "", "", "", "", "", 201.0, "RETRIEVAL", 168, "TREATMENT", "2013-02-22", 169], [403, "CDISCPILOT01", "QS", "01-701-1111", 5010, "ACITM10", "MAZE SOLUTION", "ADAS-COG", "", "3", "sec", "3", 3, "sec", "", "", "Y", "", 3.0, "BASELINE", 1, "TREATMENT", "2012-09-07", 1], [404, "CDISCPILOT01", "QS", "01-701-1111", 5025, "ACITM10", "MAZE SOLUTION", "ADAS-COG", "", "7", "sec", "7", 7, "sec", "", "", "", "", 4.0, "WEEK 2", 14, "TREATMENT", "2012-09-17", 11], [405, "CDISCPILOT01", "QS", "01-701-1111", 5040, "ACITM10", "MAZE SOLUTION", "ADAS-COG", "", "7", "sec", "7", 7, "sec", "", "", "", "", 201.0, "RETRIEVAL", 168, "TREATMENT", "2013-02-22", 169], [406, "CDISCPILOT01", "QS", "01-701-1111", 5011, "ACITM11", "SPOKEN LANGUAGE ABILITY", "ADAS-COG", "", "0", "", "0", 0, "", "", "", "Y", "", 3.0, "BASELINE", 1, "TREATMENT", "2012-09-07", 1], [407, "CDISCPILOT01", "QS", "01-701-1111", 5026, "ACITM11", "SPOKEN LANGUAGE ABILITY", "ADAS-COG", "", "0", "", "0", 0, "", "", "", "", "", 4.0, "WEEK 2", 14, "TREATMENT", "2012-09-17", 11], [408, "CDISCPILOT01", "QS", "01-701-1111", 5041, "ACITM11", "SPOKEN LANGUAGE ABILITY", "ADAS-COG", "", "0", "", "0", 0, "", "", "", "", "", 201.0, "RETRIEVAL", 168, "TREATMENT", "2013-02-22", 169], [409, "CDISCPILOT01", "QS", "01-701-1111", 5012, "ACITM12", "COMPREHENSION OF SPOKEN LANGUAGE", "ADAS-COG", "", "0", "", "0", 0, "", "", "", "Y", "", 3.0, "BASELINE", 1, "TREATMENT", "2012-09-07", 1], [410, "CDISCPILOT01", "QS", "01-701-1111", 5027, "ACITM12", "COMPREHENSION OF SPOKEN LANGUAGE", "ADAS-COG", "", "0", "", "0", 0, "", "", "", "", "", 4.0, "WEEK 2", 14, "TREATMENT", "2012-09-17", 11], [411, "CDISCPILOT01", "QS", "01-701-1111", 5042, "ACITM12", "COMPREHENSION OF SPOKEN LANGUAGE", "ADAS-COG", "", "0", "", "0", 0, "", "", "", "", "", 201.0, "RETRIEVAL", 168, "TREATMENT", "2013-02-22", 169], [412, "CDISCPILOT01", "QS", "01-701-1111", 5013, "ACITM13", "WORD FINDING DIFFICULTY IN SPONTANEOUS S", "ADAS-COG", "", "0", "", "0", 0, "", "", "", "Y", "", 3.0, "BASELINE", 1, "TREATMENT", "2012-09-07", 1], [413, "CDISCPILOT01", "QS", "01-701-1111", 5028, "ACITM13", "WORD FINDING DIFFICULTY IN SPONTANEOUS S", "ADAS-COG", "", "0", "", "0", 0, "", "", "", "", "", 4.0, "WEEK 2", 14, "TREATMENT", "2012-09-17", 11], [414, "CDISCPILOT01", "QS", "01-701-1111", 5043, "ACITM13", "WORD FINDING DIFFICULTY IN SPONTANEOUS S", "ADAS-COG", "", "0", "", "0", 0, "", "", "", "", "", 201.0, "RETRIEVAL", 168, "TREATMENT", "2013-02-22", 169], [415, "CDISCPILOT01", "QS", "01-701-1111", 5014, "ACITM14", "RECALL OF TEST INSTRUCTIONS", "ADAS-COG", "", "0", "", "0", 0, "", "", "", "Y", "", 3.0, "BASELINE", 1, "TREATMENT", "2012-09-07", 1], [416, "CDISCPILOT01", "QS", "01-701-1111", 5029, "ACITM14", "RECALL OF TEST INSTRUCTIONS", "ADAS-COG", "", "0", "", "0", 0, "", "", "", "", "", 4.0, "WEEK 2", 14, "TREATMENT", "2012-09-17", 11], [417, "CDISCPILOT01", "QS", "01-701-1111", 5044, "ACITM14", "RECALL OF TEST INSTRUCTIONS", "ADAS-COG", "", "0", "", "0", 0, "", "", "", "", "", 201.0, "RETRIEVAL", 168, "TREATMENT", "2013-02-22", 169], [418, "CDISCPILOT01", "QS", "01-701-1111", 5015, "ACTOT", "ADAS-COG(11) Subscore", "ADAS-COG", "", "", "", "7", 7, "", "", "", "Y", "Y", 3.0, "BASELINE", 1, "TREATMENT", "2012-09-07", 1], [419, "CDISCPILOT01", "QS", "01-701-1111", 5030, "ACTOT", "ADAS-COG(11) Subscore", "ADAS-COG", "", "", "", "5", 5, "", "", "", "", "Y", 4.0, "WEEK 2", 14, "TREATMENT", "2012-09-17", 11], [420, "CDISCPILOT01", "QS", "01-701-1111", 5045, "ACTOT", "ADAS-COG(11) Subscore", "ADAS-COG", "", "", "", "9", 9, "", "", "", "", "Y", 201.0, "RETRIEVAL", 168, "TREATMENT", "2013-02-22", 169], [421, "CDISCPILOT01", "QS", "01-701-1115", 5001, "ACITM01", "WORD RECALL TASK", "ADAS-COG", "", "6", "", "6", 6, "", "", "", "Y", "", 3.0, "BASELINE", 1, "TREATMENT", "2012-11-30", 1], [422, "CDISCPILOT01", "QS", "01-701-1115", 5016, "ACITM01", "WORD RECALL TASK", "ADAS-COG", "", "6", "", "6", 6, "", "", "", "", "", 8.0, "WEEK 8", 56, "TREATMENT", "2013-01-23", 55], [423, "CDISCPILOT01", "QS", "01-701-1115", 5031, "ACITM01", "WORD RECALL TASK", "ADAS-COG", "", "6", "", "6", 6, "", "", "", "", "", 201.0, "RETRIEVAL", 168, "TREATMENT", "2013-05-20", 172], [424, "CDISCPILOT01", "QS", "01-701-1115", 5002, "ACITM02", "NAMING OBJECTS AND FINGERS (REFER TO 5 C", "ADAS-COG", "", "0", "", "0", 0, "", "", "", "Y", "", 3.0, "BASELINE", 1, "TREATMENT", "2012-11-30", 1], [425, "CDISCPILOT01", "QS", "01-701-1115", 5017, "ACITM02", "NAMING OBJECTS AND FINGERS (REFER TO 5 C", "ADAS-COG", "", "1", "", "1", 1, "", "", "", "", "", 8.0, "WEEK 8", 56, "TREATMENT", "2013-01-23", 55], [426, "CDISCPILOT01", "QS", "01-701-1115", 5032, "ACITM02", "NAMING OBJECTS AND FINGERS (REFER TO 5 C", "ADAS-COG", "", "0", "", "0", 0, "", "", "", "", "", 201.0, "RETRIEVAL", 168, "TREATMENT", "2013-05-20", 172], [427, "CDISCPILOT01", "QS", "01-701-1115", 5003, "ACITM03", "DELAYED WORD RECALL", "ADAS-COG", "", "6", "", "6", 6, "", "", "", "Y", "", 3.0, "BASELINE", 1, "TREATMENT", "2012-11-30", 1], [428, "CDISCPILOT01", "QS", "01-701-1115", 5018, "ACITM03", "DELAYED WORD RECALL", "ADAS-COG", "", "6", "", "6", 6, "", "", "", "", "", 8.0, "WEEK 8", 56, "TREATMENT", "2013-01-23", 55], [429, "CDISCPILOT01", "QS", "01-701-1115", 5033, "ACITM03", "DELAYED WORD RECALL", "ADAS-COG", "", "7", "", "7", 7, "", "", "", "", "", 201.0, "RETRIEVAL", 168, "TREATMENT", "2013-05-20", 172], [430, "CDISCPILOT01", "QS", "01-701-1115", 5004, "ACITM04", "COMMANDS", "ADAS-COG", "", "0", "", "0", 0, "", "", "", "Y", "", 3.0, "BASELINE", 1, "TREATMENT", "2012-11-30", 1], [431, "CDISCPILOT01", "QS", "01-701-1115", 5019, "ACITM04", "COMMANDS", "ADAS-COG", "", "0", "", "0", 0, "", "", "", "", "", 8.0, "WEEK 8", 56, "TREATMENT", "2013-01-23", 55], [432, "CDISCPILOT01", "QS", "01-701-1115", 5034, "ACITM04", "COMMANDS", "ADAS-COG", "", "0", "", "0", 0, "", "", "", "", "", 201.0, "RETRIEVAL", 168, "TREATMENT", "2013-05-20", 172], [433, "CDISCPILOT01", "QS", "01-701-1115", 5005, "ACITM05", "CONSTRUCTIONAL PRAXIS", "ADAS-COG", "", "1", "", "1", 1, "", "", "", "Y", "", 3.0, "BASELINE", 1, "TREATMENT", "2012-11-30", 1], [434, "CDISCPILOT01", "QS", "01-701-1115", 5020, "ACITM05", "CONSTRUCTIONAL PRAXIS", "ADAS-COG", "", "1", "", "1", 1, "", "", "", "", "", 8.0, "WEEK 8", 56, "TREATMENT", "2013-01-23", 55], [435, "CDISCPILOT01", "QS", "01-701-1115", 5035, "ACITM05", "CONSTRUCTIONAL PRAXIS", "ADAS-COG", "", "1", "", "1", 1, "", "", "", "", "", 201.0, "RETRIEVAL", 168, "TREATMENT", "2013-05-20", 172], [436, "CDISCPILOT01", "QS", "01-701-1115", 5006, "ACITM06", "IDEATIONAL PRAXIS", "ADAS-COG", "", "1", "", "1", 1, "", "", "", "Y", "", 3.0, "BASELINE", 1, "TREATMENT", "2012-11-30", 1], [437, "CDISCPILOT01", "QS", "01-701-1115", 5021, "ACITM06", "IDEATIONAL PRAXIS", "ADAS-COG", "", "0", "", "0", 0, "", "", "", "", "", 8.0, "WEEK 8", 56, "TREATMENT", "2013-01-23", 55], [438, "CDISCPILOT01", "QS", "01-701-1115", 5036, "ACITM06", "IDEATIONAL PRAXIS", "ADAS-COG", "", "0", "", "0", 0, "", "", "", "", "", 201.0, "RETRIEVAL", 168, "TREATMENT", "2013-05-20", 172], [439, "CDISCPILOT01", "QS", "01-701-1115", 5007, "ACITM07", "ORIENTATION", "ADAS-COG", "", "1", "", "1", 1, "", "", "", "Y", "", 3.0, "BASELINE", 1, "TREATMENT", "2012-11-30", 1], [440, "CDISCPILOT01", "QS", "01-701-1115", 5022, "ACITM07", "ORIENTATION", "ADAS-COG", "", "1", "", "1", 1, "", "", "", "", "", 8.0, "WEEK 8", 56, "TREATMENT", "2013-01-23", 55], [441, "CDISCPILOT01", "QS", "01-701-1115", 5037, "ACITM07", "ORIENTATION", "ADAS-COG", "", "2", "", "2", 2, "", "", "", "", "", 201.0, "RETRIEVAL", 168, "TREATMENT", "2013-05-20", 172], [442, "CDISCPILOT01", "QS", "01-701-1115", 5008, "ACITM08", "WORD RECOGNITION", "ADAS-COG", "", "1", "", "1", 1, "", "", "", "Y", "", 3.0, "BASELINE", 1, "TREATMENT", "2012-11-30", 1], [443, "CDISCPILOT01", "QS", "01-701-1115", 5023, "ACITM08", "WORD RECOGNITION", "ADAS-COG", "", "5", "", "5", 5, "", "", "", "", "", 8.0, "WEEK 8", 56, "TREATMENT", "2013-01-23", 55], [444, "CDISCPILOT01", "QS", "01-701-1115", 5038, "ACITM08", "WORD RECOGNITION", "ADAS-COG", "", "1", "", "1", 1, "", "", "", "", "", 201.0, "RETRIEVAL", 168, "TREATMENT", "2013-05-20", 172], [445, "CDISCPILOT01", "QS", "01-701-1115", 5009, "ACITM09", "ATTENTION/VISUAL SEARCH TASK", "ADAS-COG", "", "26", "", "26", 26, "", "", "", "Y", "", 3.0, "BASELINE", 1, "TREATMENT", "2012-11-30", 1], [446, "CDISCPILOT01", "QS", "01-701-1115", 5024, "ACITM09", "ATTENTION/VISUAL SEARCH TASK", "ADAS-COG", "", "23", "", "23", 23, "", "", "", "", "", 8.0, "WEEK 8", 56, "TREATMENT", "2013-01-23", 55], [447, "CDISCPILOT01", "QS", "01-701-1115", 5039, "ACITM09", "ATTENTION/VISUAL SEARCH TASK", "ADAS-COG", "", "24", "", "24", 24, "", "", "", "", "", 201.0, "RETRIEVAL", 168, "TREATMENT", "2013-05-20", 172], [448, "CDISCPILOT01", "QS", "01-701-1115", 5010, "ACITM10", "MAZE SOLUTION", "ADAS-COG", "", "3", "sec", "3", 3, "sec", "", "", "Y", "", 3.0, "BASELINE", 1, "TREATMENT", "2012-11-30", 1], [449, "CDISCPILOT01", "QS", "01-701-1115", 5025, "ACITM10", "MAZE SOLUTION", "ADAS-COG", "", "6", "sec", "6", 6, "sec", "", "", "", "", 8.0, "WEEK 8", 56, "TREATMENT", "2013-01-23", 55], [450, "CDISCPILOT01", "QS", "01-701-1115", 5040, "ACITM10", "MAZE SOLUTION", "ADAS-COG", "", "7", "sec", "7", 7, "sec", "", "", "", "", 201.0, "RETRIEVAL", 168, "TREATMENT", "2013-05-20", 172], [451, "CDISCPILOT01", "QS", "01-701-1115", 5011, "ACITM11", "SPOKEN LANGUAGE ABILITY", "ADAS-COG", "", "0", "", "0", 0, "", "", "", "Y", "", 3.0, "BASELINE", 1, "TREATMENT", "2012-11-30", 1], [452, "CDISCPILOT01", "QS", "01-701-1115", 5026, "ACITM11", "SPOKEN LANGUAGE ABILITY", "ADAS-COG", "", "0", "", "0", 0, "", "", "", "", "", 8.0, "WEEK 8", 56, "TREATMENT", "2013-01-23", 55], [453, "CDISCPILOT01", "QS", "01-701-1115", 5041, "ACITM11", "SPOKEN LANGUAGE ABILITY", "ADAS-COG", "", "0", "", "0", 0, "", "", "", "", "", 201.0, "RETRIEVAL", 168, "TREATMENT", "2013-05-20", 172], [454, "CDISCPILOT01", "QS", "01-701-1115", 5012, "ACITM12", "COMPREHENSION OF SPOKEN LANGUAGE", "ADAS-COG", "", "0", "", "0", 0, "", "", "", "Y", "", 3.0, "BASELINE", 1, "TREATMENT", "2012-11-30", 1], [455, "CDISCPILOT01", "QS", "01-701-1115", 5027, "ACITM12", "COMPREHENSION OF SPOKEN LANGUAGE", "ADAS-COG", "", "0", "", "0", 0, "", "", "", "", "", 8.0, "WEEK 8", 56, "TREATMENT", "2013-01-23", 55], [456, "CDISCPILOT01", "QS", "01-701-1115", 5042, "ACITM12", "COMPREHENSION OF SPOKEN LANGUAGE", "ADAS-COG", "", "0", "", "0", 0, "", "", "", "", "", 201.0, "RETRIEVAL", 168, "TREATMENT", "2013-05-20", 172], [457, "CDISCPILOT01", "QS", "01-701-1115", 5013, "ACITM13", "WORD FINDING DIFFICULTY IN SPONTANEOUS S", "ADAS-COG", "", "0", "", "0", 0, "", "", "", "Y", "", 3.0, "BASELINE", 1, "TREATMENT", "2012-11-30", 1], [458, "CDISCPILOT01", "QS", "01-701-1115", 5028, "ACITM13", "WORD FINDING DIFFICULTY IN SPONTANEOUS S", "ADAS-COG", "", "0", "", "0", 0, "", "", "", "", "", 8.0, "WEEK 8", 56, "TREATMENT", "2013-01-23", 55], [459, "CDISCPILOT01", "QS", "01-701-1115", 5043, "ACITM13", "WORD FINDING DIFFICULTY IN SPONTANEOUS S", "ADAS-COG", "", "0", "", "0", 0, "", "", "", "", "", 201.0, "RETRIEVAL", 168, "TREATMENT", "2013-05-20", 172], [460, "CDISCPILOT01", "QS", "01-701-1115", 5014, "ACITM14", "RECALL OF TEST INSTRUCTIONS", "ADAS-COG", "", "0", "", "0", 0, "", "", "", "Y", "", 3.0, "BASELINE", 1, "TREATMENT", "2012-11-30", 1], [461, "CDISCPILOT01", "QS", "01-701-1115", 5029, "ACITM14", "RECALL OF TEST INSTRUCTIONS", "ADAS-COG", "", "0", "", "0", 0, "", "", "", "", "", 8.0, "WEEK 8", 56, "TREATMENT", "2013-01-23", 55], [462, "CDISCPILOT01", "QS", "01-701-1115", 5044, "ACITM14", "RECALL OF TEST INSTRUCTIONS", "ADAS-COG", "", "0", "", "0", 0, "", "", "", "", "", 201.0, "RETRIEVAL", 168, "TREATMENT", "2013-05-20", 172], [463, "CDISCPILOT01", "QS", "01-701-1115", 5015, "ACTOT", "ADAS-COG(11) Subscore", "ADAS-COG", "", "", "", "10", 10, "", "", "", "Y", "Y", 3.0, "BASELINE", 1, "TREATMENT", "2012-11-30", 1], [464, "CDISCPILOT01", "QS", "01-701-1115", 5030, "ACTOT", "ADAS-COG(11) Subscore", "ADAS-COG", "", "", "", "14", 14, "", "", "", "", "Y", 8.0, "WEEK 8", 56, "TREATMENT", "2013-01-23", 55], [465, "CDISCPILOT01", "QS", "01-701-1115", 5045, "ACTOT", "ADAS-COG(11) Subscore", "ADAS-COG", "", "", "", "10", 10, "", "", "", "", "Y", 201.0, "RETRIEVAL", 168, "TREATMENT", "2013-05-20", 172], [466, "CDISCPILOT01", "QS", "01-701-1118", 5001, "ACITM01", "WORD RECALL TASK", "ADAS-COG", "", "5", "", "5", 5, "", "", "", "Y", "", 3.0, "BASELINE", 1, "TREATMENT", "2014-03-12", 1], [467, "CDISCPILOT01", "QS", "01-701-1118", 5016, "ACITM01", "WORD RECALL TASK", "ADAS-COG", "", "5", "", "5", 5, "", "", "", "", "", 8.0, "WEEK 8", 56, "TREATMENT", "2014-05-08", 58], [468, "CDISCPILOT01", "QS", "01-701-1118", 5031, "ACITM01", "WORD RECALL TASK", "ADAS-COG", "", "4", "", "4", 4, "", "", "", "", "", 10.0, "WEEK 16", 112, "TREATMENT", "2014-07-02", 113], [469, "CDISCPILOT01", "QS", "01-701-1118", 5046, "ACITM01", "WORD RECALL TASK", "ADAS-COG", "", "5", "", "5", 5, "", "", "", "", "", 12.0, "WEEK 24", 168, "TREATMENT", "2014-08-27", 169], [470, "CDISCPILOT01", "QS", "01-701-1118", 5002, "ACITM02", "NAMING OBJECTS AND FINGERS (REFER TO 5 C", "ADAS-COG", "", "1", "", "1", 1, "", "", "", "Y", "", 3.0, "BASELINE", 1, "TREATMENT", "2014-03-12", 1], [471, "CDISCPILOT01", "QS", "01-701-1118", 5017, "ACITM02", "NAMING OBJECTS AND FINGERS (REFER TO 5 C", "ADAS-COG", "", "0", "", "0", 0, "", "", "", "", "", 8.0, "WEEK 8", 56, "TREATMENT", "2014-05-08", 58], [472, "CDISCPILOT01", "QS", "01-701-1118", 5032, "ACITM02", "NAMING OBJECTS AND FINGERS (REFER TO 5 C", "ADAS-COG", "", "0", "", "0", 0, "", "", "", "", "", 10.0, "WEEK 16", 112, "TREATMENT", "2014-07-02", 113], [473, "CDISCPILOT01", "QS", "01-701-1118", 5047, "ACITM02", "NAMING OBJECTS AND FINGERS (REFER TO 5 C", "ADAS-COG", "", "0", "", "0", 0, "", "", "", "", "", 12.0, "WEEK 24", 168, "TREATMENT", "2014-08-27", 169], [474, "CDISCPILOT01", "QS", "01-701-1118", 5003, "ACITM03", "DELAYED WORD RECALL", "ADAS-COG", "", "10", "", "10", 10, "", "", "", "Y", "", 3.0, "BASELINE", 1, "TREATMENT", "2014-03-12", 1], [475, "CDISCPILOT01", "QS", "01-701-1118", 5018, "ACITM03", "DELAYED WORD RECALL", "ADAS-COG", "", "7", "", "7", 7, "", "", "", "", "", 8.0, "WEEK 8", 56, "TREATMENT", "2014-05-08", 58], [476, "CDISCPILOT01", "QS", "01-701-1118", 5033, "ACITM03", "DELAYED WORD RECALL", "ADAS-COG", "", "6", "", "6", 6, "", "", "", "", "", 10.0, "WEEK 16", 112, "TREATMENT", "2014-07-02", 113], [477, "CDISCPILOT01", "QS", "01-701-1118", 5048, "ACITM03", "DELAYED WORD RECALL", "ADAS-COG", "", "8", "", "8", 8, "", "", "", "", "", 12.0, "WEEK 24", 168, "TREATMENT", "2014-08-27", 169], [478, "CDISCPILOT01", "QS", "01-701-1118", 5004, "ACITM04", "COMMANDS", "ADAS-COG", "", "0", "", "0", 0, "", "", "", "Y", "", 3.0, "BASELINE", 1, "TREATMENT", "2014-03-12", 1], [479, "CDISCPILOT01", "QS", "01-701-1118", 5019, "ACITM04", "COMMANDS", "ADAS-COG", "", "0", "", "0", 0, "", "", "", "", "", 8.0, "WEEK 8", 56, "TREATMENT", "2014-05-08", 58], [480, "CDISCPILOT01", "QS", "01-701-1118", 5034, "ACITM04", "COMMANDS", "ADAS-COG", "", "0", "", "0", 0, "", "", "", "", "", 10.0, "WEEK 16", 112, "TREATMENT", "2014-07-02", 113], [481, "CDISCPILOT01", "QS", "01-701-1118", 5049, "ACITM04", "COMMANDS", "ADAS-COG", "", "0", "", "0", 0, "", "", "", "", "", 12.0, "WEEK 24", 168, "TREATMENT", "2014-08-27", 169], [482, "CDISCPILOT01", "QS", "01-701-1118", 5005, "ACITM05", "CONSTRUCTIONAL PRAXIS", "ADAS-COG", "", "3", "", "3", 3, "", "", "", "Y", "", 3.0, "BASELINE", 1, "TREATMENT", "2014-03-12", 1], [483, "CDISCPILOT01", "QS", "01-701-1118", 5020, "ACITM05", "CONSTRUCTIONAL PRAXIS", "ADAS-COG", "", "3", "", "3", 3, "", "", "", "", "", 8.0, "WEEK 8", 56, "TREATMENT", "2014-05-08", 58], [484, "CDISCPILOT01", "QS", "01-701-1118", 5035, "ACITM05", "CONSTRUCTIONAL PRAXIS", "ADAS-COG", "", "2", "", "2", 2, "", "", "", "", "", 10.0, "WEEK 16", 112, "TREATMENT", "2014-07-02", 113], [485, "CDISCPILOT01", "QS", "01-701-1118", 5050, "ACITM05", "CONSTRUCTIONAL PRAXIS", "ADAS-COG", "", "2", "", "2", 2, "", "", "", "", "", 12.0, "WEEK 24", 168, "TREATMENT", "2014-08-27", 169], [486, "CDISCPILOT01", "QS", "01-701-1118", 5006, "ACITM06", "IDEATIONAL PRAXIS", "ADAS-COG", "", "1", "", "1", 1, "", "", "", "Y", "", 3.0, "BASELINE", 1, "TREATMENT", "2014-03-12", 1], [487, "CDISCPILOT01", "QS", "01-701-1118", 5021, "ACITM06", "IDEATIONAL PRAXIS", "ADAS-COG", "", "0", "", "0", 0, "", "", "", "", "", 8.0, "WEEK 8", 56, "TREATMENT", "2014-05-08", 58], [488, "CDISCPILOT01", "QS", "01-701-1118", 5036, "ACITM06", "IDEATIONAL PRAXIS", "ADAS-COG", "", "0", "", "0", 0, "", "", "", "", "", 10.0, "WEEK 16", 112, "TREATMENT", "2014-07-02", 113], [489, "CDISCPILOT01", "QS", "01-701-1118", 5051, "ACITM06", "IDEATIONAL PRAXIS", "ADAS-COG", "", "0", "", "0", 0, "", "", "", "", "", 12.0, "WEEK 24", 168, "TREATMENT", "2014-08-27", 169], [490, "CDISCPILOT01", "QS", "01-701-1118", 5007, "ACITM07", "ORIENTATION", "ADAS-COG", "", "4", "", "4", 4, "", "", "", "Y", "", 3.0, "BASELINE", 1, "TREATMENT", "2014-03-12", 1], [491, "CDISCPILOT01", "QS", "01-701-1118", 5022, "ACITM07", "ORIENTATION", "ADAS-COG", "", "1", "", "1", 1, "", "", "", "", "", 8.0, "WEEK 8", 56, "TREATMENT", "2014-05-08", 58], [492, "CDISCPILOT01", "QS", "01-701-1118", 5037, "ACITM07", "ORIENTATION", "ADAS-COG", "", "1", "", "1", 1, "", "", "", "", "", 10.0, "WEEK 16", 112, "TREATMENT", "2014-07-02", 113], [493, "CDISCPILOT01", "QS", "01-701-1118", 5052, "ACITM07", "ORIENTATION", "ADAS-COG", "", "1", "", "1", 1, "", "", "", "", "", 12.0, "WEEK 24", 168, "TREATMENT", "2014-08-27", 169], [494, "CDISCPILOT01", "QS", "01-701-1118", 5008, "ACITM08", "WORD RECOGNITION", "ADAS-COG", "", "10", "", "10", 10, "", "", "", "Y", "", 3.0, "BASELINE", 1, "TREATMENT", "2014-03-12", 1], [495, "CDISCPILOT01", "QS", "01-701-1118", 5023, "ACITM08", "WORD RECOGNITION", "ADAS-COG", "", "10", "", "10", 10, "", "", "", "", "", 8.0, "WEEK 8", 56, "TREATMENT", "2014-05-08", 58], [496, "CDISCPILOT01", "QS", "01-701-1118", 5038, "ACITM08", "WORD RECOGNITION", "ADAS-COG", "", "10", "", "10", 10, "", "", "", "", "", 10.0, "WEEK 16", 112, "TREATMENT", "2014-07-02", 113], [497, "CDISCPILOT01", "QS", "01-701-1118", 5053, "ACITM08", "WORD RECOGNITION", "ADAS-COG", "", "7", "", "7", 7, "", "", "", "", "", 12.0, "WEEK 24", 168, "TREATMENT", "2014-08-27", 169], [498, "CDISCPILOT01", "QS", "01-701-1118", 5009, "ACITM09", "ATTENTION/VISUAL SEARCH TASK", "ADAS-COG", "", "12", "", "12", 12, "", "", "", "Y", "", 3.0, "BASELINE", 1, "TREATMENT", "2014-03-12", 1], [499, "CDISCPILOT01", "QS", "01-701-1118", 5024, "ACITM09", "ATTENTION/VISUAL SEARCH TASK", "ADAS-COG", "", "10", "", "10", 10, "", "", "", "", "", 8.0, "WEEK 8", 56, "TREATMENT", "2014-05-08", 58], [500, "CDISCPILOT01", "QS", "01-701-1118", 5039, "ACITM09", "ATTENTION/VISUAL SEARCH TASK", "ADAS-COG", "", "11", "", "11", 11, "", "", "", "", "", 10.0, "WEEK 16", 112, "TREATMENT", "2014-07-02", 113], [501, "CDISCPILOT01", "QS", "01-701-1118", 5054, "ACITM09", "ATTENTION/VISUAL SEARCH TASK", "ADAS-COG", "", "18", "", "18", 18, "", "", "", "", "", 12.0, "WEEK 24", 168, "TREATMENT", "2014-08-27", 169], [502, "CDISCPILOT01", "QS", "01-701-1118", 5010, "ACITM10", "MAZE SOLUTION", "ADAS-COG", "", "6", "sec", "6", 6, "sec", "", "", "Y", "", 3.0, "BASELINE", 1, "TREATMENT", "2014-03-12", 1], [503, "CDISCPILOT01", "QS", "01-701-1118", 5025, "ACITM10", "MAZE SOLUTION", "ADAS-COG", "", "7", "sec", "7", 7, "sec", "", "", "", "", 8.0, "WEEK 8", 56, "TREATMENT", "2014-05-08", 58], [504, "CDISCPILOT01", "QS", "01-701-1118", 5040, "ACITM10", "MAZE SOLUTION", "ADAS-COG", "", "9", "sec", "9", 9, "sec", "", "", "", "", 10.0, "WEEK 16", 112, "TREATMENT", "2014-07-02", 113], [505, "CDISCPILOT01", "QS", "01-701-1118", 5055, "ACITM10", "MAZE SOLUTION", "ADAS-COG", "", "7", "sec", "7", 7, "sec", "", "", "", "", 12.0, "WEEK 24", 168, "TREATMENT", "2014-08-27", 169], [506, "CDISCPILOT01", "QS", "01-701-1118", 5011, "ACITM11", "SPOKEN LANGUAGE ABILITY", "ADAS-COG", "", "0", "", "0", 0, "", "", "", "Y", "", 3.0, "BASELINE", 1, "TREATMENT", "2014-03-12", 1], [507, "CDISCPILOT01", "QS", "01-701-1118", 5026, "ACITM11", "SPOKEN LANGUAGE ABILITY", "ADAS-COG", "", "0", "", "0", 0, "", "", "", "", "", 8.0, "WEEK 8", 56, "TREATMENT", "2014-05-08", 58], [508, "CDISCPILOT01", "QS", "01-701-1118", 5041, "ACITM11", "SPOKEN LANGUAGE ABILITY", "ADAS-COG", "", "0", "", "0", 0, "", "", "", "", "", 10.0, "WEEK 16", 112, "TREATMENT", "2014-07-02", 113], [509, "CDISCPILOT01", "QS", "01-701-1118", 5056, "ACITM11", "SPOKEN LANGUAGE ABILITY", "ADAS-COG", "", "0", "", "0", 0, "", "", "", "", "", 12.0, "WEEK 24", 168, "TREATMENT", "2014-08-27", 169], [510, "CDISCPILOT01", "QS", "01-701-1118", 5012, "ACITM12", "COMPREHENSION OF SPOKEN LANGUAGE", "ADAS-COG", "", "0", "", "0", 0, "", "", "", "Y", "", 3.0, "BASELINE", 1, "TREATMENT", "2014-03-12", 1], [511, "CDISCPILOT01", "QS", "01-701-1118", 5027, "ACITM12", "COMPREHENSION OF SPOKEN LANGUAGE", "ADAS-COG", "", "0", "", "0", 0, "", "", "", "", "", 8.0, "WEEK 8", 56, "TREATMENT", "2014-05-08", 58], [512, "CDISCPILOT01", "QS", "01-701-1118", 5042, "ACITM12", "COMPREHENSION OF SPOKEN LANGUAGE", "ADAS-COG", "", "0", "", "0", 0, "", "", "", "", "", 10.0, "WEEK 16", 112, "TREATMENT", "2014-07-02", 113], [513, "CDISCPILOT01", "QS", "01-701-1118", 5057, "ACITM12", "COMPREHENSION OF SPOKEN LANGUAGE", "ADAS-COG", "", "0", "", "0", 0, "", "", "", "", "", 12.0, "WEEK 24", 168, "TREATMENT", "2014-08-27", 169], [514, "CDISCPILOT01", "QS", "01-701-1118", 5013, "ACITM13", "WORD FINDING DIFFICULTY IN SPONTANEOUS S", "ADAS-COG", "", "1", "", "1", 1, "", "", "", "Y", "", 3.0, "BASELINE", 1, "TREATMENT", "2014-03-12", 1], [515, "CDISCPILOT01", "QS", "01-701-1118", 5028, "ACITM13", "WORD FINDING DIFFICULTY IN SPONTANEOUS S", "ADAS-COG", "", "0", "", "0", 0, "", "", "", "", "", 8.0, "WEEK 8", 56, "TREATMENT", "2014-05-08", 58], [516, "CDISCPILOT01", "QS", "01-701-1118", 5043, "ACITM13", "WORD FINDING DIFFICULTY IN SPONTANEOUS S", "ADAS-COG", "", "0", "", "0", 0, "", "", "", "", "", 10.0, "WEEK 16", 112, "TREATMENT", "2014-07-02", 113], [517, "CDISCPILOT01", "QS", "01-701-1118", 5058, "ACITM13", "WORD FINDING DIFFICULTY IN SPONTANEOUS S", "ADAS-COG", "", "0", "", "0", 0, "", "", "", "", "", 12.0, "WEEK 24", 168, "TREATMENT", "2014-08-27", 169], [518, "CDISCPILOT01", "QS", "01-701-1118", 5014, "ACITM14", "RECALL OF TEST INSTRUCTIONS", "ADAS-COG", "", "1", "", "1", 1, "", "", "", "Y", "", 3.0, "BASELINE", 1, "TREATMENT", "2014-03-12", 1], [519, "CDISCPILOT01", "QS", "01-701-1118", 5029, "ACITM14", "RECALL OF TEST INSTRUCTIONS", "ADAS-COG", "", "0", "", "0", 0, "", "", "", "", "", 8.0, "WEEK 8", 56, "TREATMENT", "2014-05-08", 58], [520, "CDISCPILOT01", "QS", "01-701-1118", 5044, "ACITM14", "RECALL OF TEST INSTRUCTIONS", "ADAS-COG", "", "0", "", "0", 0, "", "", "", "", "", 10.0, "WEEK 16", 112, "TREATMENT", "2014-07-02", 113], [521, "CDISCPILOT01", "QS", "01-701-1118", 5059, "ACITM14", "RECALL OF TEST INSTRUCTIONS", "ADAS-COG", "", "0", "", "0", 0, "", "", "", "", "", 12.0, "WEEK 24", 168, "TREATMENT", "2014-08-27", 169], [522, "CDISCPILOT01", "QS", "01-701-1118", 5015, "ACTOT", "ADAS-COG(11) Subscore", "ADAS-COG", "", "", "", "26", 26, "", "", "", "Y", "Y", 3.0, "BASELINE", 1, "TREATMENT", "2014-03-12", 1], [523, "CDISCPILOT01", "QS", "01-701-1118", 5030, "ACTOT", "ADAS-COG(11) Subscore", "ADAS-COG", "", "", "", "19", 19, "", "", "", "", "Y", 8.0, "WEEK 8", 56, "TREATMENT", "2014-05-08", 58], [524, "CDISCPILOT01", "QS", "01-701-1118", 5045, "ACTOT", "ADAS-COG(11) Subscore", "ADAS-COG", "", "", "", "17", 17, "", "", "", "", "Y", 10.0, "WEEK 16", 112, "TREATMENT", "2014-07-02", 113], [525, "CDISCPILOT01", "QS", "01-701-1118", 5060, "ACTOT", "ADAS-COG(11) Subscore", "ADAS-COG", "", "", "", "15", 15, "", "", "", "", "Y", 12.0, "WEEK 24", 168, "TREATMENT", "2014-08-27", 169], [526, "CDISCPILOT01", "QS", "01-701-1130", 5001, "ACITM01", "WORD RECALL TASK", "ADAS-COG", "", "4", "", "4", 4, "", "", "", "Y", "", 3.0, "BASELINE", 1, "TREATMENT", "2014-02-15", 1], [527, "CDISCPILOT01", "QS", "01-701-1130", 5016, "ACITM01", "WORD RECALL TASK", "ADAS-COG", "", "4", "", "4", 4, "", "", "", "", "", 8.0, "WEEK 8", 56, "TREATMENT", "2014-04-12", 57], [528, "CDISCPILOT01", "QS", "01-701-1130", 5031, "ACITM01", "WORD RECALL TASK", "ADAS-COG", "", "5", "", "5", 5, "", "", "", "", "", 10.0, "WEEK 16", 112, "TREATMENT", "2014-06-07", 113], [529, "CDISCPILOT01", "QS", "01-701-1130", 5046, "ACITM01", "WORD RECALL TASK", "ADAS-COG", "", "4", "", "4", 4, "", "", "", "", "", 12.0, "WEEK 24", 168, "TREATMENT", "2014-08-02", 169], [530, "CDISCPILOT01", "QS", "01-701-1130", 5002, "ACITM02", "NAMING OBJECTS AND FINGERS (REFER TO 5 C", "ADAS-COG", "", "0", "", "0", 0, "", "", "", "Y", "", 3.0, "BASELINE", 1, "TREATMENT", "2014-02-15", 1], [531, "CDISCPILOT01", "QS", "01-701-1130", 5017, "ACITM02", "NAMING OBJECTS AND FINGERS (REFER TO 5 C", "ADAS-COG", "", "0", "", "0", 0, "", "", "", "", "", 8.0, "WEEK 8", 56, "TREATMENT", "2014-04-12", 57], [532, "CDISCPILOT01", "QS", "01-701-1130", 5032, "ACITM02", "NAMING OBJECTS AND FINGERS (REFER TO 5 C", "ADAS-COG", "", "0", "", "0", 0, "", "", "", "", "", 10.0, "WEEK 16", 112, "TREATMENT", "2014-06-07", 113], [533, "CDISCPILOT01", "QS", "01-701-1130", 5047, "ACITM02", "NAMING OBJECTS AND FINGERS (REFER TO 5 C", "ADAS-COG", "", "0", "", "0", 0, "", "", "", "", "", 12.0, "WEEK 24", 168, "TREATMENT", "2014-08-02", 169], [534, "CDISCPILOT01", "QS", "01-701-1130", 5003, "ACITM03", "DELAYED WORD RECALL", "ADAS-COG", "", "10", "", "10", 10, "", "", "", "Y", "", 3.0, "BASELINE", 1, "TREATMENT", "2014-02-15", 1], [535, "CDISCPILOT01", "QS", "01-701-1130", 5018, "ACITM03", "DELAYED WORD RECALL", "ADAS-COG", "", "10", "", "10", 10, "", "", "", "", "", 8.0, "WEEK 8", 56, "TREATMENT", "2014-04-12", 57], [536, "CDISCPILOT01", "QS", "01-701-1130", 5033, "ACITM03", "DELAYED WORD RECALL", "ADAS-COG", "", "10", "", "10", 10, "", "", "", "", "", 10.0, "WEEK 16", 112, "TREATMENT", "2014-06-07", 113], [537, "CDISCPILOT01", "QS", "01-701-1130", 5048, "ACITM03", "DELAYED WORD RECALL", "ADAS-COG", "", "10", "", "10", 10, "", "", "", "", "", 12.0, "WEEK 24", 168, "TREATMENT", "2014-08-02", 169], [538, "CDISCPILOT01", "QS", "01-701-1130", 5004, "ACITM04", "COMMANDS", "ADAS-COG", "", "0", "", "0", 0, "", "", "", "Y", "", 3.0, "BASELINE", 1, "TREATMENT", "2014-02-15", 1], [539, "CDISCPILOT01", "QS", "01-701-1130", 5019, "ACITM04", "COMMANDS", "ADAS-COG", "", "0", "", "0", 0, "", "", "", "", "", 8.0, "WEEK 8", 56, "TREATMENT", "2014-04-12", 57], [540, "CDISCPILOT01", "QS", "01-701-1130", 5034, "ACITM04", "COMMANDS", "ADAS-COG", "", "0", "", "0", 0, "", "", "", "", "", 10.0, "WEEK 16", 112, "TREATMENT", "2014-06-07", 113], [541, "CDISCPILOT01", "QS", "01-701-1130", 5049, "ACITM04", "COMMANDS", "ADAS-COG", "", "0", "", "0", 0, "", "", "", "", "", 12.0, "WEEK 24", 168, "TREATMENT", "2014-08-02", 169], [542, "CDISCPILOT01", "QS", "01-701-1130", 5005, "ACITM05", "CONSTRUCTIONAL PRAXIS", "ADAS-COG", "", "0", "", "0", 0, "", "", "", "Y", "", 3.0, "BASELINE", 1, "TREATMENT", "2014-02-15", 1], [543, "CDISCPILOT01", "QS", "01-701-1130", 5020, "ACITM05", "CONSTRUCTIONAL PRAXIS", "ADAS-COG", "", "1", "", "1", 1, "", "", "", "", "", 8.0, "WEEK 8", 56, "TREATMENT", "2014-04-12", 57], [544, "CDISCPILOT01", "QS", "01-701-1130", 5035, "ACITM05", "CONSTRUCTIONAL PRAXIS", "ADAS-COG", "", "0", "", "0", 0, "", "", "", "", "", 10.0, "WEEK 16", 112, "TREATMENT", "2014-06-07", 113], [545, "CDISCPILOT01", "QS", "01-701-1130", 5050, "ACITM05", "CONSTRUCTIONAL PRAXIS", "ADAS-COG", "", "1", "", "1", 1, "", "", "", "", "", 12.0, "WEEK 24", 168, "TREATMENT", "2014-08-02", 169], [546, "CDISCPILOT01", "QS", "01-701-1130", 5006, "ACITM06", "IDEATIONAL PRAXIS", "ADAS-COG", "", "2", "", "2", 2, "", "", "", "Y", "", 3.0, "BASELINE", 1, "TREATMENT", "2014-02-15", 1], [547, "CDISCPILOT01", "QS", "01-701-1130", 5021, "ACITM06", "IDEATIONAL PRAXIS", "ADAS-COG", "", "1", "", "1", 1, "", "", "", "", "", 8.0, "WEEK 8", 56, "TREATMENT", "2014-04-12", 57], [548, "CDISCPILOT01", "QS", "01-701-1130", 5036, "ACITM06", "IDEATIONAL PRAXIS", "ADAS-COG", "", "1", "", "1", 1, "", "", "", "", "", 10.0, "WEEK 16", 112, "TREATMENT", "2014-06-07", 113], [549, "CDISCPILOT01", "QS", "01-701-1130", 5051, "ACITM06", "IDEATIONAL PRAXIS", "ADAS-COG", "", "1", "", "1", 1, "", "", "", "", "", 12.0, "WEEK 24", 168, "TREATMENT", "2014-08-02", 169], [550, "CDISCPILOT01", "QS", "01-701-1130", 5007, "ACITM07", "ORIENTATION", "ADAS-COG", "", "5", "", "5", 5, "", "", "", "Y", "", 3.0, "BASELINE", 1, "TREATMENT", "2014-02-15", 1], [551, "CDISCPILOT01", "QS", "01-701-1130", 5022, "ACITM07", "ORIENTATION", "ADAS-COG", "", "3", "", "3", 3, "", "", "", "", "", 8.0, "WEEK 8", 56, "TREATMENT", "2014-04-12", 57], [552, "CDISCPILOT01", "QS", "01-701-1130", 5037, "ACITM07", "ORIENTATION", "ADAS-COG", "", "3", "", "3", 3, "", "", "", "", "", 10.0, "WEEK 16", 112, "TREATMENT", "2014-06-07", 113], [553, "CDISCPILOT01", "QS", "01-701-1130", 5052, "ACITM07", "ORIENTATION", "ADAS-COG", "", "3", "", "3", 3, "", "", "", "", "", 12.0, "WEEK 24", 168, "TREATMENT", "2014-08-02", 169], [554, "CDISCPILOT01", "QS", "01-701-1130", 5008, "ACITM08", "WORD RECOGNITION", "ADAS-COG", "", "8", "", "8", 8, "", "", "", "Y", "", 3.0, "BASELINE", 1, "TREATMENT", "2014-02-15", 1], [555, "CDISCPILOT01", "QS", "01-701-1130", 5023, "ACITM08", "WORD RECOGNITION", "ADAS-COG", "", "3", "", "3", 3, "", "", "", "", "", 8.0, "WEEK 8", 56, "TREATMENT", "2014-04-12", 57], [556, "CDISCPILOT01", "QS", "01-701-1130", 5038, "ACITM08", "WORD RECOGNITION", "ADAS-COG", "", "3", "", "3", 3, "", "", "", "", "", 10.0, "WEEK 16", 112, "TREATMENT", "2014-06-07", 113], [557, "CDISCPILOT01", "QS", "01-701-1130", 5053, "ACITM08", "WORD RECOGNITION", "ADAS-COG", "", "5", "", "5", 5, "", "", "", "", "", 12.0, "WEEK 24", 168, "TREATMENT", "2014-08-02", 169], [558, "CDISCPILOT01", "QS", "01-701-1130", 5009, "ACITM09", "ATTENTION/VISUAL SEARCH TASK", "ADAS-COG", "", "25", "", "25", 25, "", "", "", "Y", "", 3.0, "BASELINE", 1, "TREATMENT", "2014-02-15", 1], [559, "CDISCPILOT01", "QS", "01-701-1130", 5024, "ACITM09", "ATTENTION/VISUAL SEARCH TASK", "ADAS-COG", "", "19", "", "19", 19, "", "", "", "", "", 8.0, "WEEK 8", 56, "TREATMENT", "2014-04-12", 57], [560, "CDISCPILOT01", "QS", "01-701-1130", 5039, "ACITM09", "ATTENTION/VISUAL SEARCH TASK", "ADAS-COG", "", "24", "", "24", 24, "", "", "", "", "", 10.0, "WEEK 16", 112, "TREATMENT", "2014-06-07", 113], [561, "CDISCPILOT01", "QS", "01-701-1130", 5054, "ACITM09", "ATTENTION/VISUAL SEARCH TASK", "ADAS-COG", "", "28", "", "28", 28, "", "", "", "", "", 12.0, "WEEK 24", 168, "TREATMENT", "2014-08-02", 169], [562, "CDISCPILOT01", "QS", "01-701-1130", 5010, "ACITM10", "MAZE SOLUTION", "ADAS-COG", "", "4", "sec", "4", 4, "sec", "", "", "Y", "", 3.0, "BASELINE", 1, "TREATMENT", "2014-02-15", 1], [563, "CDISCPILOT01", "QS", "01-701-1130", 5025, "ACITM10", "MAZE SOLUTION", "ADAS-COG", "", "8", "sec", "8", 8, "sec", "", "", "", "", 8.0, "WEEK 8", 56, "TREATMENT", "2014-04-12", 57], [564, "CDISCPILOT01", "QS", "01-701-1130", 5040, "ACITM10", "MAZE SOLUTION", "ADAS-COG", "", "7", "sec", "7", 7, "sec", "", "", "", "", 10.0, "WEEK 16", 112, "TREATMENT", "2014-06-07", 113], [565, "CDISCPILOT01", "QS", "01-701-1130", 5055, "ACITM10", "MAZE SOLUTION", "ADAS-COG", "", "5", "sec", "5", 5, "sec", "", "", "", "", 12.0, "WEEK 24", 168, "TREATMENT", "2014-08-02", 169], [566, "CDISCPILOT01", "QS", "01-701-1130", 5011, "ACITM11", "SPOKEN LANGUAGE ABILITY", "ADAS-COG", "", "0", "", "0", 0, "", "", "", "Y", "", 3.0, "BASELINE", 1, "TREATMENT", "2014-02-15", 1], [567, "CDISCPILOT01", "QS", "01-701-1130", 5026, "ACITM11", "SPOKEN LANGUAGE ABILITY", "ADAS-COG", "", "0", "", "0", 0, "", "", "", "", "", 8.0, "WEEK 8", 56, "TREATMENT", "2014-04-12", 57], [568, "CDISCPILOT01", "QS", "01-701-1130", 5041, "ACITM11", "SPOKEN LANGUAGE ABILITY", "ADAS-COG", "", "0", "", "0", 0, "", "", "", "", "", 10.0, "WEEK 16", 112, "TREATMENT", "2014-06-07", 113], [569, "CDISCPILOT01", "QS", "01-701-1130", 5056, "ACITM11", "SPOKEN LANGUAGE ABILITY", "ADAS-COG", "", "0", "", "0", 0, "", "", "", "", "", 12.0, "WEEK 24", 168, "TREATMENT", "2014-08-02", 169], [570, "CDISCPILOT01", "QS", "01-701-1130", 5012, "ACITM12", "COMPREHENSION OF SPOKEN LANGUAGE", "ADAS-COG", "", "0", "", "0", 0, "", "", "", "Y", "", 3.0, "BASELINE", 1, "TREATMENT", "2014-02-15", 1], [571, "CDISCPILOT01", "QS", "01-701-1130", 5027, "ACITM12", "COMPREHENSION OF SPOKEN LANGUAGE", "ADAS-COG", "", "0", "", "0", 0, "", "", "", "", "", 8.0, "WEEK 8", 56, "TREATMENT", "2014-04-12", 57], [572, "CDISCPILOT01", "QS", "01-701-1130", 5042, "ACITM12", "COMPREHENSION OF SPOKEN LANGUAGE", "ADAS-COG", "", "0", "", "0", 0, "", "", "", "", "", 10.0, "WEEK 16", 112, "TREATMENT", "2014-06-07", 113], [573, "CDISCPILOT01", "QS", "01-701-1130", 5057, "ACITM12", "COMPREHENSION OF SPOKEN LANGUAGE", "ADAS-COG", "", "0", "", "0", 0, "", "", "", "", "", 12.0, "WEEK 24", 168, "TREATMENT", "2014-08-02", 169], [574, "CDISCPILOT01", "QS", "01-701-1130", 5013, "ACITM13", "WORD FINDING DIFFICULTY IN SPONTANEOUS S", "ADAS-COG", "", "0", "", "0", 0, "", "", "", "Y", "", 3.0, "BASELINE", 1, "TREATMENT", "2014-02-15", 1], [575, "CDISCPILOT01", "QS", "01-701-1130", 5028, "ACITM13", "WORD FINDING DIFFICULTY IN SPONTANEOUS S", "ADAS-COG", "", "0", "", "0", 0, "", "", "", "", "", 8.0, "WEEK 8", 56, "TREATMENT", "2014-04-12", 57], [576, "CDISCPILOT01", "QS", "01-701-1130", 5043, "ACITM13", "WORD FINDING DIFFICULTY IN SPONTANEOUS S", "ADAS-COG", "", "0", "", "0", 0, "", "", "", "", "", 10.0, "WEEK 16", 112, "TREATMENT", "2014-06-07", 113], [577, "CDISCPILOT01", "QS", "01-701-1130", 5058, "ACITM13", "WORD FINDING DIFFICULTY IN SPONTANEOUS S", "ADAS-COG", "", "0", "", "0", 0, "", "", "", "", "", 12.0, "WEEK 24", 168, "TREATMENT", "2014-08-02", 169], [578, "CDISCPILOT01", "QS", "01-701-1130", 5014, "ACITM14", "RECALL OF TEST INSTRUCTIONS", "ADAS-COG", "", "0", "", "0", 0, "", "", "", "Y", "", 3.0, "BASELINE", 1, "TREATMENT", "2014-02-15", 1], [579, "CDISCPILOT01", "QS", "01-701-1130", 5029, "ACITM14", "RECALL OF TEST INSTRUCTIONS", "ADAS-COG", "", "0", "", "0", 0, "", "", "", "", "", 8.0, "WEEK 8", 56, "TREATMENT", "2014-04-12", 57], [580, "CDISCPILOT01", "QS", "01-701-1130", 5044, "ACITM14", "RECALL OF TEST INSTRUCTIONS", "ADAS-COG", "", "0", "", "0", 0, "", "", "", "", "", 10.0, "WEEK 16", 112, "TREATMENT", "2014-06-07", 113], [581, "CDISCPILOT01", "QS", "01-701-1130", 5059, "ACITM14", "RECALL OF TEST INSTRUCTIONS", "ADAS-COG", "", "0", "", "0", 0, "", "", "", "", "", 12.0, "WEEK 24", 168, "TREATMENT", "2014-08-02", 169], [582, "CDISCPILOT01", "QS", "01-701-1130", 5015, "ACTOT", "ADAS-COG(11) Subscore", "ADAS-COG", "", "", "", "19", 19, "", "", "", "Y", "Y", 3.0, "BASELINE", 1, "TREATMENT", "2014-02-15", 1], [583, "CDISCPILOT01", "QS", "01-701-1130", 5030, "ACTOT", "ADAS-COG(11) Subscore", "ADAS-COG", "", "", "", "12", 12, "", "", "", "", "Y", 8.0, "WEEK 8", 56, "TREATMENT", "2014-04-12", 57], [584, "CDISCPILOT01", "QS", "01-701-1130", 5045, "ACTOT", "ADAS-COG(11) Subscore", "ADAS-COG", "", "", "", "12", 12, "", "", "", "", "Y", 10.0, "WEEK 16", 112, "TREATMENT", "2014-06-07", 113], [585, "CDISCPILOT01", "QS", "01-701-1130", 5060, "ACTOT", "ADAS-COG(11) Subscore", "ADAS-COG", "", "", "", "14", 14, "", "", "", "", "Y", 12.0, "WEEK 24", 168, "TREATMENT", "2014-08-02", 169], [586, "CDISCPILOT01", "QS", "01-701-1133", 5001, "ACITM01", "WORD RECALL TASK", "ADAS-COG", "", "7", "", "7", 7, "", "", "", "Y", "", 3.0, "BASELINE", 1, "TREATMENT", "2012-10-28", 1], [587, "CDISCPILOT01", "QS", "01-701-1133", 5016, "ACITM01", "WORD RECALL TASK", "ADAS-COG", "", "6", "", "6", 6, "", "", "", "", "", 8.0, "WEEK 8", 56, "TREATMENT", "2012-12-24", 58], [588, "CDISCPILOT01", "QS", "01-701-1133", 5031, "ACITM01", "WORD RECALL TASK", "ADAS-COG", "", "6", "", "6", 6, "", "", "", "", "", 10.0, "WEEK 16", 112, "TREATMENT", "2013-02-18", 114], [589, "CDISCPILOT01", "QS", "01-701-1133", 5046, "ACITM01", "WORD RECALL TASK", "ADAS-COG", "", "6", "", "6", 6, "", "", "", "", "", 12.0, "WEEK 24", 168, "TREATMENT", "2013-04-18", 173], [590, "CDISCPILOT01", "QS", "01-701-1133", 5002, "ACITM02", "NAMING OBJECTS AND FINGERS (REFER TO 5 C", "ADAS-COG", "", "0", "", "0", 0, "", "", "", "Y", "", 3.0, "BASELINE", 1, "TREATMENT", "2012-10-28", 1], [591, "CDISCPILOT01", "QS", "01-701-1133", 5017, "ACITM02", "NAMING OBJECTS AND FINGERS (REFER TO 5 C", "ADAS-COG", "", "0", "", "0", 0, "", "", "", "", "", 8.0, "WEEK 8", 56, "TREATMENT", "2012-12-24", 58], [592, "CDISCPILOT01", "QS", "01-701-1133", 5032, "ACITM02", "NAMING OBJECTS AND FINGERS (REFER TO 5 C", "ADAS-COG", "", "0", "", "0", 0, "", "", "", "", "", 10.0, "WEEK 16", 112, "TREATMENT", "2013-02-18", 114], [593, "CDISCPILOT01", "QS", "01-701-1133", 5047, "ACITM02", "NAMING OBJECTS AND FINGERS (REFER TO 5 C", "ADAS-COG", "", "0", "", "0", 0, "", "", "", "", "", 12.0, "WEEK 24", 168, "TREATMENT", "2013-04-18", 173], [594, "CDISCPILOT01", "QS", "01-701-1133", 5003, "ACITM03", "DELAYED WORD RECALL", "ADAS-COG", "", "9", "", "9", 9, "", "", "", "Y", "", 3.0, "BASELINE", 1, "TREATMENT", "2012-10-28", 1], [595, "CDISCPILOT01", "QS", "01-701-1133", 5018, "ACITM03", "DELAYED WORD RECALL", "ADAS-COG", "", "9", "", "9", 9, "", "", "", "", "", 8.0, "WEEK 8", 56, "TREATMENT", "2012-12-24", 58], [596, "CDISCPILOT01", "QS", "01-701-1133", 5033, "ACITM03", "DELAYED WORD RECALL", "ADAS-COG", "", "8", "", "8", 8, "", "", "", "", "", 10.0, "WEEK 16", 112, "TREATMENT", "2013-02-18", 114], [597, "CDISCPILOT01", "QS", "01-701-1133", 5048, "ACITM03", "DELAYED WORD RECALL", "ADAS-COG", "", "10", "", "10", 10, "", "", "", "", "", 12.0, "WEEK 24", 168, "TREATMENT", "2013-04-18", 173], [598, "CDISCPILOT01", "QS", "01-701-1133", 5004, "ACITM04", "COMMANDS", "ADAS-COG", "", "0", "", "0", 0, "", "", "", "Y", "", 3.0, "BASELINE", 1, "TREATMENT", "2012-10-28", 1], [599, "CDISCPILOT01", "QS", "01-701-1133", 5019, "ACITM04", "COMMANDS", "ADAS-COG", "", "0", "", "0", 0, "", "", "", "", "", 8.0, "WEEK 8", 56, "TREATMENT", "2012-12-24", 58], [600, "CDISCPILOT01", "QS", "01-701-1133", 5034, "ACITM04", "COMMANDS", "ADAS-COG", "", "0", "", "0", 0, "", "", "", "", "", 10.0, "WEEK 16", 112, "TREATMENT", "2013-02-18", 114], [601, "CDISCPILOT01", "QS", "01-701-1133", 5049, "ACITM04", "COMMANDS", "ADAS-COG", "", "1", "", "1", 1, "", "", "", "", "", 12.0, "WEEK 24", 168, "TREATMENT", "2013-04-18", 173], [602, "CDISCPILOT01", "QS", "01-701-1133", 5005, "ACITM05", "CONSTRUCTIONAL PRAXIS", "ADAS-COG", "", "1", "", "1", 1, "", "", "", "Y", "", 3.0, "BASELINE", 1, "TREATMENT", "2012-10-28", 1], [603, "CDISCPILOT01", "QS", "01-701-1133", 5020, "ACITM05", "CONSTRUCTIONAL PRAXIS", "ADAS-COG", "", "1", "", "1", 1, "", "", "", "", "", 8.0, "WEEK 8", 56, "TREATMENT", "2012-12-24", 58], [604, "CDISCPILOT01", "QS", "01-701-1133", 5035, "ACITM05", "CONSTRUCTIONAL PRAXIS", "ADAS-COG", "", "1", "", "1", 1, "", "", "", "", "", 10.0, "WEEK 16", 112, "TREATMENT", "2013-02-18", 114], [605, "CDISCPILOT01", "QS", "01-701-1133", 5050, "ACITM05", "CONSTRUCTIONAL PRAXIS", "ADAS-COG", "", "3", "", "3", 3, "", "", "", "", "", 12.0, "WEEK 24", 168, "TREATMENT", "2013-04-18", 173], [606, "CDISCPILOT01", "QS", "01-701-1133", 5006, "ACITM06", "IDEATIONAL PRAXIS", "ADAS-COG", "", "0", "", "0", 0, "", "", "", "Y", "", 3.0, "BASELINE", 1, "TREATMENT", "2012-10-28", 1], [607, "CDISCPILOT01", "QS", "01-701-1133", 5021, "ACITM06", "IDEATIONAL PRAXIS", "ADAS-COG", "", "0", "", "0", 0, "", "", "", "", "", 8.0, "WEEK 8", 56, "TREATMENT", "2012-12-24", 58], [608, "CDISCPILOT01", "QS", "01-701-1133", 5036, "ACITM06", "IDEATIONAL PRAXIS", "ADAS-COG", "", "0", "", "0", 0, "", "", "", "", "", 10.0, "WEEK 16", 112, "TREATMENT", "2013-02-18", 114], [609, "CDISCPILOT01", "QS", "01-701-1133", 5051, "ACITM06", "IDEATIONAL PRAXIS", "ADAS-COG", "", "0", "", "0", 0, "", "", "", "", "", 12.0, "WEEK 24", 168, "TREATMENT", "2013-04-18", 173], [610, "CDISCPILOT01", "QS", "01-701-1133", 5007, "ACITM07", "ORIENTATION", "ADAS-COG", "", "2", "", "2", 2, "", "", "", "Y", "", 3.0, "BASELINE", 1, "TREATMENT", "2012-10-28", 1], [611, "CDISCPILOT01", "QS", "01-701-1133", 5022, "ACITM07", "ORIENTATION", "ADAS-COG", "", "4", "", "4", 4, "", "", "", "", "", 8.0, "WEEK 8", 56, "TREATMENT", "2012-12-24", 58], [612, "CDISCPILOT01", "QS", "01-701-1133", 5037, "ACITM07", "ORIENTATION", "ADAS-COG", "", "5", "", "5", 5, "", "", "", "", "", 10.0, "WEEK 16", 112, "TREATMENT", "2013-02-18", 114], [613, "CDISCPILOT01", "QS", "01-701-1133", 5052, "ACITM07", "ORIENTATION", "ADAS-COG", "", "4", "", "4", 4, "", "", "", "", "", 12.0, "WEEK 24", 168, "TREATMENT", "2013-04-18", 173], [614, "CDISCPILOT01", "QS", "01-701-1133", 5008, "ACITM08", "WORD RECOGNITION", "ADAS-COG", "", "2", "", "2", 2, "", "", "", "Y", "", 3.0, "BASELINE", 1, "TREATMENT", "2012-10-28", 1], [615, "CDISCPILOT01", "QS", "01-701-1133", 5023, "ACITM08", "WORD RECOGNITION", "ADAS-COG", "", "3", "", "3", 3, "", "", "", "", "", 8.0, "WEEK 8", 56, "TREATMENT", "2012-12-24", 58], [616, "CDISCPILOT01", "QS", "01-701-1133", 5038, "ACITM08", "WORD RECOGNITION", "ADAS-COG", "", "5", "", "5", 5, "", "", "", "", "", 10.0, "WEEK 16", 112, "TREATMENT", "2013-02-18", 114], [617, "CDISCPILOT01", "QS", "01-701-1133", 5053, "ACITM08", "WORD RECOGNITION", "ADAS-COG", "", "4", "", "4", 4, "", "", "", "", "", 12.0, "WEEK 24", 168, "TREATMENT", "2013-04-18", 173], [618, "CDISCPILOT01", "QS", "01-701-1133", 5009, "ACITM09", "ATTENTION/VISUAL SEARCH TASK", "ADAS-COG", "", "24", "", "24", 24, "", "", "", "Y", "", 3.0, "BASELINE", 1, "TREATMENT", "2012-10-28", 1], [619, "CDISCPILOT01", "QS", "01-701-1133", 5024, "ACITM09", "ATTENTION/VISUAL SEARCH TASK", "ADAS-COG", "", "22", "", "22", 22, "", "", "", "", "", 8.0, "WEEK 8", 56, "TREATMENT", "2012-12-24", 58], [620, "CDISCPILOT01", "QS", "01-701-1133", 5039, "ACITM09", "ATTENTION/VISUAL SEARCH TASK", "ADAS-COG", "", "21", "", "21", 21, "", "", "", "", "", 10.0, "WEEK 16", 112, "TREATMENT", "2013-02-18", 114], [621, "CDISCPILOT01", "QS", "01-701-1133", 5054, "ACITM09", "ATTENTION/VISUAL SEARCH TASK", "ADAS-COG", "", "22", "", "22", 22, "", "", "", "", "", 12.0, "WEEK 24", 168, "TREATMENT", "2013-04-18", 173], [622, "CDISCPILOT01", "QS", "01-701-1133", 5010, "ACITM10", "MAZE SOLUTION", "ADAS-COG", "", "12", "sec", "12", 12, "sec", "", "", "Y", "", 3.0, "BASELINE", 1, "TREATMENT", "2012-10-28", 1], [623, "CDISCPILOT01", "QS", "01-701-1133", 5025, "ACITM10", "MAZE SOLUTION", "ADAS-COG", "", "240", "sec", "240", 240, "sec", "", "", "", "", 8.0, "WEEK 8", 56, "TREATMENT", "2012-12-24", 58], [624, "CDISCPILOT01", "QS", "01-701-1133", 5040, "ACITM10", "MAZE SOLUTION", "ADAS-COG", "", "16", "sec", "16", 16, "sec", "", "", "", "", 10.0, "WEEK 16", 112, "TREATMENT", "2013-02-18", 114], [625, "CDISCPILOT01", "QS", "01-701-1133", 5055, "ACITM10", "MAZE SOLUTION", "ADAS-COG", "", "14", "sec", "14", 14, "sec", "", "", "", "", 12.0, "WEEK 24", 168, "TREATMENT", "2013-04-18", 173], [626, "CDISCPILOT01", "QS", "01-701-1133", 5011, "ACITM11", "SPOKEN LANGUAGE ABILITY", "ADAS-COG", "", "0", "", "0", 0, "", "", "", "Y", "", 3.0, "BASELINE", 1, "TREATMENT", "2012-10-28", 1], [627, "CDISCPILOT01", "QS", "01-701-1133", 5026, "ACITM11", "SPOKEN LANGUAGE ABILITY", "ADAS-COG", "", "1", "", "1", 1, "", "", "", "", "", 8.0, "WEEK 8", 56, "TREATMENT", "2012-12-24", 58], [628, "CDISCPILOT01", "QS", "01-701-1133", 5041, "ACITM11", "SPOKEN LANGUAGE ABILITY", "ADAS-COG", "", "1", "", "1", 1, "", "", "", "", "", 10.0, "WEEK 16", 112, "TREATMENT", "2013-02-18", 114], [629, "CDISCPILOT01", "QS", "01-701-1133", 5056, "ACITM11", "SPOKEN LANGUAGE ABILITY", "ADAS-COG", "", "0", "", "0", 0, "", "", "", "", "", 12.0, "WEEK 24", 168, "TREATMENT", "2013-04-18", 173], [630, "CDISCPILOT01", "QS", "01-701-1133", 5012, "ACITM12", "COMPREHENSION OF SPOKEN LANGUAGE", "ADAS-COG", "", "0", "", "0", 0, "", "", "", "Y", "", 3.0, "BASELINE", 1, "TREATMENT", "2012-10-28", 1], [631, "CDISCPILOT01", "QS", "01-701-1133", 5027, "ACITM12", "COMPREHENSION OF SPOKEN LANGUAGE", "ADAS-COG", "", "2", "", "2", 2, "", "", "", "", "", 8.0, "WEEK 8", 56, "TREATMENT", "2012-12-24", 58], [632, "CDISCPILOT01", "QS", "01-701-1133", 5042, "ACITM12", "COMPREHENSION OF SPOKEN LANGUAGE", "ADAS-COG", "", "2", "", "2", 2, "", "", "", "", "", 10.0, "WEEK 16", 112, "TREATMENT", "2013-02-18", 114], [633, "CDISCPILOT01", "QS", "01-701-1133", 5057, "ACITM12", "COMPREHENSION OF SPOKEN LANGUAGE", "ADAS-COG", "", "0", "", "0", 0, "", "", "", "", "", 12.0, "WEEK 24", 168, "TREATMENT", "2013-04-18", 173], [634, "CDISCPILOT01", "QS", "01-701-1133", 5013, "ACITM13", "WORD FINDING DIFFICULTY IN SPONTANEOUS S", "ADAS-COG", "", "1", "", "1", 1, "", "", "", "Y", "", 3.0, "BASELINE", 1, "TREATMENT", "2012-10-28", 1], [635, "CDISCPILOT01", "QS", "01-701-1133", 5028, "ACITM13", "WORD FINDING DIFFICULTY IN SPONTANEOUS S", "ADAS-COG", "", "1", "", "1", 1, "", "", "", "", "", 8.0, "WEEK 8", 56, "TREATMENT", "2012-12-24", 58], [636, "CDISCPILOT01", "QS", "01-701-1133", 5043, "ACITM13", "WORD FINDING DIFFICULTY IN SPONTANEOUS S", "ADAS-COG", "", "1", "", "1", 1, "", "", "", "", "", 10.0, "WEEK 16", 112, "TREATMENT", "2013-02-18", 114], [637, "CDISCPILOT01", "QS", "01-701-1133", 5058, "ACITM13", "WORD FINDING DIFFICULTY IN SPONTANEOUS S", "ADAS-COG", "", "0", "", "0", 0, "", "", "", "", "", 12.0, "WEEK 24", 168, "TREATMENT", "2013-04-18", 173], [638, "CDISCPILOT01", "QS", "01-701-1133", 5014, "ACITM14", "RECALL OF TEST INSTRUCTIONS", "ADAS-COG", "", "0", "", "0", 0, "", "", "", "Y", "", 3.0, "BASELINE", 1, "TREATMENT", "2012-10-28", 1], [639, "CDISCPILOT01", "QS", "01-701-1133", 5029, "ACITM14", "RECALL OF TEST INSTRUCTIONS", "ADAS-COG", "", "2", "", "2", 2, "", "", "", "", "", 8.0, "WEEK 8", 56, "TREATMENT", "2012-12-24", 58], [640, "CDISCPILOT01", "QS", "01-701-1133", 5044, "ACITM14", "RECALL OF TEST INSTRUCTIONS", "ADAS-COG", "", "1", "", "1", 1, "", "", "", "", "", 10.0, "WEEK 16", 112, "TREATMENT", "2013-02-18", 114], [641, "CDISCPILOT01", "QS", "01-701-1133", 5059, "ACITM14", "RECALL OF TEST INSTRUCTIONS", "ADAS-COG", "", "0", "", "0", 0, "", "", "", "", "", 12.0, "WEEK 24", 168, "TREATMENT", "2013-04-18", 173], [642, "CDISCPILOT01", "QS", "01-701-1133", 5015, "ACTOT", "ADAS-COG(11) Subscore", "ADAS-COG", "", "", "", "13", 13, "", "", "", "Y", "Y", 3.0, "BASELINE", 1, "TREATMENT", "2012-10-28", 1], [643, "CDISCPILOT01", "QS", "01-701-1133", 5030, "ACTOT", "ADAS-COG(11) Subscore", "ADAS-COG", "", "", "", "20", 20, "", "", "", "", "Y", 8.0, "WEEK 8", 56, "TREATMENT", "2012-12-24", 58], [644, "CDISCPILOT01", "QS", "01-701-1133", 5045, "ACTOT", "ADAS-COG(11) Subscore", "ADAS-COG", "", "", "", "22", 22, "", "", "", "", "Y", 10.0, "WEEK 16", 112, "TREATMENT", "2013-02-18", 114], [645, "CDISCPILOT01", "QS", "01-701-1133", 5060, "ACTOT", "ADAS-COG(11) Subscore", "ADAS-COG", "", "", "", "18", 18, "", "", "", "", "Y", 12.0, "WEEK 24", 168, "TREATMENT", "2013-04-18", 173], [646, "CDISCPILOT01", "QS", "01-701-1146", 5001, "ACITM01", "WORD RECALL TASK", "ADAS-COG", "", "5", "", "5", 5, "", "", "", "Y", "", 3.0, "BASELINE", 1, "TREATMENT", "2013-05-20", 1], [647, "CDISCPILOT01", "QS", "01-701-1146", 5016, "ACITM01", "WORD RECALL TASK", "ADAS-COG", "", "4", "", "4", 4, "", "", "", "", "", 7.0, "WEEK 6", 42, "TREATMENT", "2013-06-30", 42], [648, "CDISCPILOT01", "QS", "01-701-1146", 5002, "ACITM02", "NAMING OBJECTS AND FINGERS (REFER TO 5 C", "ADAS-COG", "", "0", "", "0", 0, "", "", "", "Y", "", 3.0, "BASELINE", 1, "TREATMENT", "2013-05-20", 1], [649, "CDISCPILOT01", "QS", "01-701-1146", 5017, "ACITM02", "NAMING OBJECTS AND FINGERS (REFER TO 5 C", "ADAS-COG", "", "0", "", "0", 0, "", "", "", "", "", 7.0, "WEEK 6", 42, "TREATMENT", "2013-06-30", 42], [650, "CDISCPILOT01", "QS", "01-701-1146", 5003, "ACITM03", "DELAYED WORD RECALL", "ADAS-COG", "", "9", "", "9", 9, "", "", "", "Y", "", 3.0, "BASELINE", 1, "TREATMENT", "2013-05-20", 1], [651, "CDISCPILOT01", "QS", "01-701-1146", 5018, "ACITM03", "DELAYED WORD RECALL", "ADAS-COG", "", "9", "", "9", 9, "", "", "", "", "", 7.0, "WEEK 6", 42, "TREATMENT", "2013-06-30", 42], [652, "CDISCPILOT01", "QS", "01-701-1146", 5004, "ACITM04", "COMMANDS", "ADAS-COG", "", "0", "", "0", 0, "", "", "", "Y", "", 3.0, "BASELINE", 1, "TREATMENT", "2013-05-20", 1], [653, "CDISCPILOT01", "QS", "01-701-1146", 5019, "ACITM04", "COMMANDS", "ADAS-COG", "", "0", "", "0", 0, "", "", "", "", "", 7.0, "WEEK 6", 42, "TREATMENT", "2013-06-30", 42], [654, "CDISCPILOT01", "QS", "01-701-1146", 5005, "ACITM05", "CONSTRUCTIONAL PRAXIS", "ADAS-COG", "", "0", "", "0", 0, "", "", "", "Y", "", 3.0, "BASELINE", 1, "TREATMENT", "2013-05-20", 1], [655, "CDISCPILOT01", "QS", "01-701-1146", 5020, "ACITM05", "CONSTRUCTIONAL PRAXIS", "ADAS-COG", "", "0", "", "0", 0, "", "", "", "", "", 7.0, "WEEK 6", 42, "TREATMENT", "2013-06-30", 42], [656, "CDISCPILOT01", "QS", "01-701-1146", 5006, "ACITM06", "IDEATIONAL PRAXIS", "ADAS-COG", "", "1", "", "1", 1, "", "", "", "Y", "", 3.0, "BASELINE", 1, "TREATMENT", "2013-05-20", 1], [657, "CDISCPILOT01", "QS", "01-701-1146", 5021, "ACITM06", "IDEATIONAL PRAXIS", "ADAS-COG", "", "1", "", "1", 1, "", "", "", "", "", 7.0, "WEEK 6", 42, "TREATMENT", "2013-06-30", 42], [658, "CDISCPILOT01", "QS", "01-701-1146", 5007, "ACITM07", "ORIENTATION", "ADAS-COG", "", "0", "", "0", 0, "", "", "", "Y", "", 3.0, "BASELINE", 1, "TREATMENT", "2013-05-20", 1], [659, "CDISCPILOT01", "QS", "01-701-1146", 5022, "ACITM07", "ORIENTATION", "ADAS-COG", "", "0", "", "0", 0, "", "", "", "", "", 7.0, "WEEK 6", 42, "TREATMENT", "2013-06-30", 42], [660, "CDISCPILOT01", "QS", "01-701-1146", 5008, "ACITM08", "WORD RECOGNITION", "ADAS-COG", "", "4", "", "4", 4, "", "", "", "Y", "", 3.0, "BASELINE", 1, "TREATMENT", "2013-05-20", 1], [661, "CDISCPILOT01", "QS", "01-701-1146", 5023, "ACITM08", "WORD RECOGNITION", "ADAS-COG", "", "3", "", "3", 3, "", "", "", "", "", 7.0, "WEEK 6", 42, "TREATMENT", "2013-06-30", 42], [662, "CDISCPILOT01", "QS", "01-701-1146", 5009, "ACITM09", "ATTENTION/VISUAL SEARCH TASK", "ADAS-COG", "", "17", "", "17", 17, "", "", "", "Y", "", 3.0, "BASELINE", 1, "TREATMENT", "2013-05-20", 1], [663, "CDISCPILOT01", "QS", "01-701-1146", 5024, "ACITM09", "ATTENTION/VISUAL SEARCH TASK", "ADAS-COG", "", "19", "", "19", 19, "", "", "", "", "", 7.0, "WEEK 6", 42, "TREATMENT", "2013-06-30", 42], [664, "CDISCPILOT01", "QS", "01-701-1146", 5010, "ACITM10", "MAZE SOLUTION", "ADAS-COG", "", "3", "sec", "3", 3, "sec", "", "", "Y", "", 3.0, "BASELINE", 1, "TREATMENT", "2013-05-20", 1], [665, "CDISCPILOT01", "QS", "01-701-1146", 5025, "ACITM10", "MAZE SOLUTION", "ADAS-COG", "", "13", "sec", "13", 13, "sec", "", "", "", "", 7.0, "WEEK 6", 42, "TREATMENT", "2013-06-30", 42], [666, "CDISCPILOT01", "QS", "01-701-1146", 5011, "ACITM11", "SPOKEN LANGUAGE ABILITY", "ADAS-COG", "", "1", "", "1", 1, "", "", "", "Y", "", 3.0, "BASELINE", 1, "TREATMENT", "2013-05-20", 1], [667, "CDISCPILOT01", "QS", "01-701-1146", 5026, "ACITM11", "SPOKEN LANGUAGE ABILITY", "ADAS-COG", "", "0", "", "0", 0, "", "", "", "", "", 7.0, "WEEK 6", 42, "TREATMENT", "2013-06-30", 42], [668, "CDISCPILOT01", "QS", "01-701-1146", 5012, "ACITM12", "COMPREHENSION OF SPOKEN LANGUAGE", "ADAS-COG", "", "0", "", "0", 0, "", "", "", "Y", "", 3.0, "BASELINE", 1, "TREATMENT", "2013-05-20", 1], [669, "CDISCPILOT01", "QS", "01-701-1146", 5027, "ACITM12", "COMPREHENSION OF SPOKEN LANGUAGE", "ADAS-COG", "", "0", "", "0", 0, "", "", "", "", "", 7.0, "WEEK 6", 42, "TREATMENT", "2013-06-30", 42], [670, "CDISCPILOT01", "QS", "01-701-1146", 5013, "ACITM13", "WORD FINDING DIFFICULTY IN SPONTANEOUS S", "ADAS-COG", "", "0", "", "0", 0, "", "", "", "Y", "", 3.0, "BASELINE", 1, "TREATMENT", "2013-05-20", 1], [671, "CDISCPILOT01", "QS", "01-701-1146", 5028, "ACITM13", "WORD FINDING DIFFICULTY IN SPONTANEOUS S", "ADAS-COG", "", "0", "", "0", 0, "", "", "", "", "", 7.0, "WEEK 6", 42, "TREATMENT", "2013-06-30", 42], [672, "CDISCPILOT01", "QS", "01-701-1146", 5014, "ACITM14", "RECALL OF TEST INSTRUCTIONS", "ADAS-COG", "", "0", "", "0", 0, "", "", "", "Y", "", 3.0, "BASELINE", 1, "TREATMENT", "2013-05-20", 1], [673, "CDISCPILOT01", "QS", "01-701-1146", 5029, "ACITM14", "RECALL OF TEST INSTRUCTIONS", "ADAS-COG", "", "2", "", "2", 2, "", "", "", "", "", 7.0, "WEEK 6", 42, "TREATMENT", "2013-06-30", 42], [674, "CDISCPILOT01", "QS", "01-701-1146", 5015, "ACTOT", "ADAS-COG(11) Subscore", "ADAS-COG", "", "", "", "11", 11, "", "", "", "Y", "Y", 3.0, "BASELINE", 1, "TREATMENT", "2013-05-20", 1], [675, "CDISCPILOT01", "QS", "01-701-1146", 5030, "ACTOT", "ADAS-COG(11) Subscore", "ADAS-COG", "", "", "", "10", 10, "", "", "", "", "Y", 7.0, "WEEK 6", 42, "TREATMENT", "2013-06-30", 42], [676, "CDISCPILOT01", "QS", "01-701-1148", 5001, "ACITM01", "WORD RECALL TASK", "ADAS-COG", "", "4", "", "4", 4, "", "", "", "Y", "", 3.0, "BASELINE", 1, "TREATMENT", "2013-08-23", 1], [677, "CDISCPILOT01", "QS", "01-701-1148", 5016, "ACITM01", "WORD RECALL TASK", "ADAS-COG", "", "4", "", "4", 4, "", "", "", "", "", 8.0, "WEEK 8", 56, "TREATMENT", "2013-10-18", 57], [678, "CDISCPILOT01", "QS", "01-701-1148", 5031, "ACITM01", "WORD RECALL TASK", "ADAS-COG", "", "4", "", "4", 4, "", "", "", "", "", 10.0, "WEEK 16", 112, "TREATMENT", "2013-12-13", 113], [679, "CDISCPILOT01", "QS", "01-701-1148", 5046, "ACITM01", "WORD RECALL TASK", "ADAS-COG", "", "6", "", "6", 6, "", "", "", "", "", 12.0, "WEEK 24", 168, "TREATMENT", "2014-02-08", 170], [680, "CDISCPILOT01", "QS", "01-701-1148", 5002, "ACITM02", "NAMING OBJECTS AND FINGERS (REFER TO 5 C", "ADAS-COG", "", "0", "", "0", 0, "", "", "", "Y", "", 3.0, "BASELINE", 1, "TREATMENT", "2013-08-23", 1], [681, "CDISCPILOT01", "QS", "01-701-1148", 5017, "ACITM02", "NAMING OBJECTS AND FINGERS (REFER TO 5 C", "ADAS-COG", "", "0", "", "0", 0, "", "", "", "", "", 8.0, "WEEK 8", 56, "TREATMENT", "2013-10-18", 57], [682, "CDISCPILOT01", "QS", "01-701-1148", 5032, "ACITM02", "NAMING OBJECTS AND FINGERS (REFER TO 5 C", "ADAS-COG", "", "0", "", "0", 0, "", "", "", "", "", 10.0, "WEEK 16", 112, "TREATMENT", "2013-12-13", 113], [683, "CDISCPILOT01", "QS", "01-701-1148", 5047, "ACITM02", "NAMING OBJECTS AND FINGERS (REFER TO 5 C", "ADAS-COG", "", "0", "", "0", 0, "", "", "", "", "", 12.0, "WEEK 24", 168, "TREATMENT", "2014-02-08", 170], [684, "CDISCPILOT01", "QS", "01-701-1148", 5003, "ACITM03", "DELAYED WORD RECALL", "ADAS-COG", "", "3", "", "3", 3, "", "", "", "Y", "", 3.0, "BASELINE", 1, "TREATMENT", "2013-08-23", 1], [685, "CDISCPILOT01", "QS", "01-701-1148", 5018, "ACITM03", "DELAYED WORD RECALL", "ADAS-COG", "", "3", "", "3", 3, "", "", "", "", "", 8.0, "WEEK 8", 56, "TREATMENT", "2013-10-18", 57], [686, "CDISCPILOT01", "QS", "01-701-1148", 5033, "ACITM03", "DELAYED WORD RECALL", "ADAS-COG", "", "4", "", "4", 4, "", "", "", "", "", 10.0, "WEEK 16", 112, "TREATMENT", "2013-12-13", 113], [687, "CDISCPILOT01", "QS", "01-701-1148", 5048, "ACITM03", "DELAYED WORD RECALL", "ADAS-COG", "", "5", "", "5", 5, "", "", "", "", "", 12.0, "WEEK 24", 168, "TREATMENT", "2014-02-08", 170], [688, "CDISCPILOT01", "QS", "01-701-1148", 5004, "ACITM04", "COMMANDS", "ADAS-COG", "", "0", "", "0", 0, "", "", "", "Y", "", 3.0, "BASELINE", 1, "TREATMENT", "2013-08-23", 1], [689, "CDISCPILOT01", "QS", "01-701-1148", 5019, "ACITM04", "COMMANDS", "ADAS-COG", "", "0", "", "0", 0, "", "", "", "", "", 8.0, "WEEK 8", 56, "TREATMENT", "2013-10-18", 57], [690, "CDISCPILOT01", "QS", "01-701-1148", 5034, "ACITM04", "COMMANDS", "ADAS-COG", "", "0", "", "0", 0, "", "", "", "", "", 10.0, "WEEK 16", 112, "TREATMENT", "2013-12-13", 113], [691, "CDISCPILOT01", "QS", "01-701-1148", 5049, "ACITM04", "COMMANDS", "ADAS-COG", "", "0", "", "0", 0, "", "", "", "", "", 12.0, "WEEK 24", 168, "TREATMENT", "2014-02-08", 170], [692, "CDISCPILOT01", "QS", "01-701-1148", 5005, "ACITM05", "CONSTRUCTIONAL PRAXIS", "ADAS-COG", "", "0", "", "0", 0, "", "", "", "Y", "", 3.0, "BASELINE", 1, "TREATMENT", "2013-08-23", 1], [693, "CDISCPILOT01", "QS", "01-701-1148", 5020, "ACITM05", "CONSTRUCTIONAL PRAXIS", "ADAS-COG", "", "1", "", "1", 1, "", "", "", "", "", 8.0, "WEEK 8", 56, "TREATMENT", "2013-10-18", 57], [694, "CDISCPILOT01", "QS", "01-701-1148", 5035, "ACITM05", "CONSTRUCTIONAL PRAXIS", "ADAS-COG", "", "2", "", "2", 2, "", "", "", "", "", 10.0, "WEEK 16", 112, "TREATMENT", "2013-12-13", 113], [695, "CDISCPILOT01", "QS", "01-701-1148", 5050, "ACITM05", "CONSTRUCTIONAL PRAXIS", "ADAS-COG", "", "1", "", "1", 1, "", "", "", "", "", 12.0, "WEEK 24", 168, "TREATMENT", "2014-02-08", 170], [696, "CDISCPILOT01", "QS", "01-701-1148", 5006, "ACITM06", "IDEATIONAL PRAXIS", "ADAS-COG", "", "0", "", "0", 0, "", "", "", "Y", "", 3.0, "BASELINE", 1, "TREATMENT", "2013-08-23", 1], [697, "CDISCPILOT01", "QS", "01-701-1148", 5021, "ACITM06", "IDEATIONAL PRAXIS", "ADAS-COG", "", "0", "", "0", 0, "", "", "", "", "", 8.0, "WEEK 8", 56, "TREATMENT", "2013-10-18", 57], [698, "CDISCPILOT01", "QS", "01-701-1148", 5036, "ACITM06", "IDEATIONAL PRAXIS", "ADAS-COG", "", "0", "", "0", 0, "", "", "", "", "", 10.0, "WEEK 16", 112, "TREATMENT", "2013-12-13", 113], [699, "CDISCPILOT01", "QS", "01-701-1148", 5051, "ACITM06", "IDEATIONAL PRAXIS", "ADAS-COG", "", "0", "", "0", 0, "", "", "", "", "", 12.0, "WEEK 24", 168, "TREATMENT", "2014-02-08", 170], [700, "CDISCPILOT01", "QS", "01-701-1148", 5007, "ACITM07", "ORIENTATION", "ADAS-COG", "", "0", "", "0", 0, "", "", "", "Y", "", 3.0, "BASELINE", 1, "TREATMENT", "2013-08-23", 1], [701, "CDISCPILOT01", "QS", "01-701-1148", 5022, "ACITM07", "ORIENTATION", "ADAS-COG", "", "0", "", "0", 0, "", "", "", "", "", 8.0, "WEEK 8", 56, "TREATMENT", "2013-10-18", 57], [702, "CDISCPILOT01", "QS", "01-701-1148", 5037, "ACITM07", "ORIENTATION", "ADAS-COG", "", "0", "", "0", 0, "", "", "", "", "", 10.0, "WEEK 16", 112, "TREATMENT", "2013-12-13", 113], [703, "CDISCPILOT01", "QS", "01-701-1148", 5052, "ACITM07", "ORIENTATION", "ADAS-COG", "", "0", "", "0", 0, "", "", "", "", "", 12.0, "WEEK 24", 168, "TREATMENT", "2014-02-08", 170], [704, "CDISCPILOT01", "QS", "01-701-1148", 5008, "ACITM08", "WORD RECOGNITION", "ADAS-COG", "", "1", "", "1", 1, "", "", "", "Y", "", 3.0, "BASELINE", 1, "TREATMENT", "2013-08-23", 1], [705, "CDISCPILOT01", "QS", "01-701-1148", 5023, "ACITM08", "WORD RECOGNITION", "ADAS-COG", "", "1", "", "1", 1, "", "", "", "", "", 8.0, "WEEK 8", 56, "TREATMENT", "2013-10-18", 57], [706, "CDISCPILOT01", "QS", "01-701-1148", 5038, "ACITM08", "WORD RECOGNITION", "ADAS-COG", "", "0", "", "0", 0, "", "", "", "", "", 10.0, "WEEK 16", 112, "TREATMENT", "2013-12-13", 113], [707, "CDISCPILOT01", "QS", "01-701-1148", 5053, "ACITM08", "WORD RECOGNITION", "ADAS-COG", "", "0", "", "0", 0, "", "", "", "", "", 12.0, "WEEK 24", 168, "TREATMENT", "2014-02-08", 170], [708, "CDISCPILOT01", "QS", "01-701-1148", 5009, "ACITM09", "ATTENTION/VISUAL SEARCH TASK", "ADAS-COG", "", "29", "", "29", 29, "", "", "", "Y", "", 3.0, "BASELINE", 1, "TREATMENT", "2013-08-23", 1], [709, "CDISCPILOT01", "QS", "01-701-1148", 5024, "ACITM09", "ATTENTION/VISUAL SEARCH TASK", "ADAS-COG", "", "27", "", "27", 27, "", "", "", "", "", 8.0, "WEEK 8", 56, "TREATMENT", "2013-10-18", 57], [710, "CDISCPILOT01", "QS", "01-701-1148", 5039, "ACITM09", "ATTENTION/VISUAL SEARCH TASK", "ADAS-COG", "", "34", "", "34", 34, "", "", "", "", "", 10.0, "WEEK 16", 112, "TREATMENT", "2013-12-13", 113], [711, "CDISCPILOT01", "QS", "01-701-1148", 5054, "ACITM09", "ATTENTION/VISUAL SEARCH TASK", "ADAS-COG", "", "39", "", "39", 39, "", "", "", "", "", 12.0, "WEEK 24", 168, "TREATMENT", "2014-02-08", 170], [712, "CDISCPILOT01", "QS", "01-701-1148", 5010, "ACITM10", "MAZE SOLUTION", "ADAS-COG", "", "4", "sec", "4", 4, "sec", "", "", "Y", "", 3.0, "BASELINE", 1, "TREATMENT", "2013-08-23", 1], [713, "CDISCPILOT01", "QS", "01-701-1148", 5025, "ACITM10", "MAZE SOLUTION", "ADAS-COG", "", "2", "sec", "2", 2, "sec", "", "", "", "", 8.0, "WEEK 8", 56, "TREATMENT", "2013-10-18", 57], [714, "CDISCPILOT01", "QS", "01-701-1148", 5040, "ACITM10", "MAZE SOLUTION", "ADAS-COG", "", "3", "sec", "3", 3, "sec", "", "", "", "", 10.0, "WEEK 16", 112, "TREATMENT", "2013-12-13", 113], [715, "CDISCPILOT01", "QS", "01-701-1148", 5055, "ACITM10", "MAZE SOLUTION", "ADAS-COG", "", "2", "sec", "2", 2, "sec", "", "", "", "", 12.0, "WEEK 24", 168, "TREATMENT", "2014-02-08", 170], [716, "CDISCPILOT01", "QS", "01-701-1148", 5011, "ACITM11", "SPOKEN LANGUAGE ABILITY", "ADAS-COG", "", "0", "", "0", 0, "", "", "", "Y", "", 3.0, "BASELINE", 1, "TREATMENT", "2013-08-23", 1], [717, "CDISCPILOT01", "QS", "01-701-1148", 5026, "ACITM11", "SPOKEN LANGUAGE ABILITY", "ADAS-COG", "", "0", "", "0", 0, "", "", "", "", "", 8.0, "WEEK 8", 56, "TREATMENT", "2013-10-18", 57], [718, "CDISCPILOT01", "QS", "01-701-1148", 5041, "ACITM11", "SPOKEN LANGUAGE ABILITY", "ADAS-COG", "", "0", "", "0", 0, "", "", "", "", "", 10.0, "WEEK 16", 112, "TREATMENT", "2013-12-13", 113], [719, "CDISCPILOT01", "QS", "01-701-1148", 5056, "ACITM11", "SPOKEN LANGUAGE ABILITY", "ADAS-COG", "", "0", "", "0", 0, "", "", "", "", "", 12.0, "WEEK 24", 168, "TREATMENT", "2014-02-08", 170], [720, "CDISCPILOT01", "QS", "01-701-1148", 5012, "ACITM12", "COMPREHENSION OF SPOKEN LANGUAGE", "ADAS-COG", "", "0", "", "0", 0, "", "", "", "Y", "", 3.0, "BASELINE", 1, "TREATMENT", "2013-08-23", 1], [721, "CDISCPILOT01", "QS", "01-701-1148", 5027, "ACITM12", "COMPREHENSION OF SPOKEN LANGUAGE", "ADAS-COG", "", "0", "", "0", 0, "", "", "", "", "", 8.0, "WEEK 8", 56, "TREATMENT", "2013-10-18", 57], [722, "CDISCPILOT01", "QS", "01-701-1148", 5042, "ACITM12", "COMPREHENSION OF SPOKEN LANGUAGE", "ADAS-COG", "", "0", "", "0", 0, "", "", "", "", "", 10.0, "WEEK 16", 112, "TREATMENT", "2013-12-13", 113], [723, "CDISCPILOT01", "QS", "01-701-1148", 5057, "ACITM12", "COMPREHENSION OF SPOKEN LANGUAGE", "ADAS-COG", "", "0", "", "0", 0, "", "", "", "", "", 12.0, "WEEK 24", 168, "TREATMENT", "2014-02-08", 170], [724, "CDISCPILOT01", "QS", "01-701-1148", 5013, "ACITM13", "WORD FINDING DIFFICULTY IN SPONTANEOUS S", "ADAS-COG", "", "0", "", "0", 0, "", "", "", "Y", "", 3.0, "BASELINE", 1, "TREATMENT", "2013-08-23", 1], [725, "CDISCPILOT01", "QS", "01-701-1148", 5028, "ACITM13", "WORD FINDING DIFFICULTY IN SPONTANEOUS S", "ADAS-COG", "", "0", "", "0", 0, "", "", "", "", "", 8.0, "WEEK 8", 56, "TREATMENT", "2013-10-18", 57], [726, "CDISCPILOT01", "QS", "01-701-1148", 5043, "ACITM13", "WORD FINDING DIFFICULTY IN SPONTANEOUS S", "ADAS-COG", "", "0", "", "0", 0, "", "", "", "", "", 10.0, "WEEK 16", 112, "TREATMENT", "2013-12-13", 113], [727, "CDISCPILOT01", "QS", "01-701-1148", 5058, "ACITM13", "WORD FINDING DIFFICULTY IN SPONTANEOUS S", "ADAS-COG", "", "0", "", "0", 0, "", "", "", "", "", 12.0, "WEEK 24", 168, "TREATMENT", "2014-02-08", 170], [728, "CDISCPILOT01", "QS", "01-701-1148", 5014, "ACITM14", "RECALL OF TEST INSTRUCTIONS", "ADAS-COG", "", "0", "", "0", 0, "", "", "", "Y", "", 3.0, "BASELINE", 1, "TREATMENT", "2013-08-23", 1], [729, "CDISCPILOT01", "QS", "01-701-1148", 5029, "ACITM14", "RECALL OF TEST INSTRUCTIONS", "ADAS-COG", "", "0", "", "0", 0, "", "", "", "", "", 8.0, "WEEK 8", 56, "TREATMENT", "2013-10-18", 57], [730, "CDISCPILOT01", "QS", "01-701-1148", 5044, "ACITM14", "RECALL OF TEST INSTRUCTIONS", "ADAS-COG", "", "0", "", "0", 0, "", "", "", "", "", 10.0, "WEEK 16", 112, "TREATMENT", "2013-12-13", 113], [731, "CDISCPILOT01", "QS", "01-701-1148", 5059, "ACITM14", "RECALL OF TEST INSTRUCTIONS", "ADAS-COG", "", "0", "", "0", 0, "", "", "", "", "", 12.0, "WEEK 24", 168, "TREATMENT", "2014-02-08", 170], [732, "CDISCPILOT01", "QS", "01-701-1148", 5015, "ACTOT", "ADAS-COG(11) Subscore", "ADAS-COG", "", "", "", "5", 5, "", "", "", "Y", "Y", 3.0, "BASELINE", 1, "TREATMENT", "2013-08-23", 1], [733, "CDISCPILOT01", "QS", "01-701-1148", 5030, "ACTOT", "ADAS-COG(11) Subscore", "ADAS-COG", "", "", "", "6", 6, "", "", "", "", "Y", 8.0, "WEEK 8", 56, "TREATMENT", "2013-10-18", 57], [734, "CDISCPILOT01", "QS", "01-701-1148", 5045, "ACTOT", "ADAS-COG(11) Subscore", "ADAS-COG", "", "", "", "6", 6, "", "", "", "", "Y", 10.0, "WEEK 16", 112, "TREATMENT", "2013-12-13", 113], [735, "CDISCPILOT01", "QS", "01-701-1148", 5060, "ACTOT", "ADAS-COG(11) Subscore", "ADAS-COG", "", "", "", "7", 7, "", "", "", "", "Y", 12.0, "WEEK 24", 168, "TREATMENT", "2014-02-08", 170], [736, "CDISCPILOT01", "QS", "01-701-1153", 5001, "ACITM01", "WORD RECALL TASK", "ADAS-COG", "", "10", "", "10", 10, "", "", "", "Y", "", 3.0, "BASELINE", 1, "TREATMENT", "2013-09-23", 1], [737, "CDISCPILOT01", "QS", "01-701-1153", 5016, "ACITM01", "WORD RECALL TASK", "ADAS-COG", "", "10", "", "10", 10, "", "", "", "", "", 8.0, "WEEK 8", 56, "TREATMENT", "2013-11-18", 57], [738, "CDISCPILOT01", "QS", "01-701-1153", 5031, "ACITM01", "WORD RECALL TASK", "ADAS-COG", "", "10", "", "10", 10, "", "", "", "", "", 10.0, "WEEK 16", 112, "TREATMENT", "2014-01-08", 108], [739, "CDISCPILOT01", "QS", "01-701-1153", 5046, "ACITM01", "WORD RECALL TASK", "ADAS-COG", "", "10", "", "10", 10, "", "", "", "", "", 12.0, "WEEK 24", 168, "TREATMENT", "2014-03-11", 170], [740, "CDISCPILOT01", "QS", "01-701-1153", 5002, "ACITM02", "NAMING OBJECTS AND FINGERS (REFER TO 5 C", "ADAS-COG", "", "4", "", "4", 4, "", "", "", "Y", "", 3.0, "BASELINE", 1, "TREATMENT", "2013-09-23", 1], [741, "CDISCPILOT01", "QS", "01-701-1153", 5017, "ACITM02", "NAMING OBJECTS AND FINGERS (REFER TO 5 C", "ADAS-COG", "", "4", "", "4", 4, "", "", "", "", "", 8.0, "WEEK 8", 56, "TREATMENT", "2013-11-18", 57], [742, "CDISCPILOT01", "QS", "01-701-1153", 5032, "ACITM02", "NAMING OBJECTS AND FINGERS (REFER TO 5 C", "ADAS-COG", "", "5", "", "5", 5, "", "", "", "", "", 10.0, "WEEK 16", 112, "TREATMENT", "2014-01-08", 108], [743, "CDISCPILOT01", "QS", "01-701-1153", 5047, "ACITM02", "NAMING OBJECTS AND FINGERS (REFER TO 5 C", "ADAS-COG", "", "4", "", "4", 4, "", "", "", "", "", 12.0, "WEEK 24", 168, "TREATMENT", "2014-03-11", 170], [744, "CDISCPILOT01", "QS", "01-701-1153", 5003, "ACITM03", "DELAYED WORD RECALL", "ADAS-COG", "", "10", "", "10", 10, "", "", "", "Y", "", 3.0, "BASELINE", 1, "TREATMENT", "2013-09-23", 1], [745, "CDISCPILOT01", "QS", "01-701-1153", 5018, "ACITM03", "DELAYED WORD RECALL", "ADAS-COG", "", "10", "", "10", 10, "", "", "", "", "", 8.0, "WEEK 8", 56, "TREATMENT", "2013-11-18", 57], [746, "CDISCPILOT01", "QS", "01-701-1153", 5033, "ACITM03", "DELAYED WORD RECALL", "ADAS-COG", "", "10", "", "10", 10, "", "", "", "", "", 10.0, "WEEK 16", 112, "TREATMENT", "2014-01-08", 108], [747, "CDISCPILOT01", "QS", "01-701-1153", 5048, "ACITM03", "DELAYED WORD RECALL", "ADAS-COG", "", "10", "", "10", 10, "", "", "", "", "", 12.0, "WEEK 24", 168, "TREATMENT", "2014-03-11", 170], [748, "CDISCPILOT01", "QS", "01-701-1153", 5004, "ACITM04", "COMMANDS", "ADAS-COG", "", "3", "", "3", 3, "", "", "", "Y", "", 3.0, "BASELINE", 1, "TREATMENT", "2013-09-23", 1], [749, "CDISCPILOT01", "QS", "01-701-1153", 5019, "ACITM04", "COMMANDS", "ADAS-COG", "", "2", "", "2", 2, "", "", "", "", "", 8.0, "WEEK 8", 56, "TREATMENT", "2013-11-18", 57], [750, "CDISCPILOT01", "QS", "01-701-1153", 5034, "ACITM04", "COMMANDS", "ADAS-COG", "", "2", "", "2", 2, "", "", "", "", "", 10.0, "WEEK 16", 112, "TREATMENT", "2014-01-08", 108], [751, "CDISCPILOT01", "QS", "01-701-1153", 5049, "ACITM04", "COMMANDS", "ADAS-COG", "", "1", "", "1", 1, "", "", "", "", "", 12.0, "WEEK 24", 168, "TREATMENT", "2014-03-11", 170], [752, "CDISCPILOT01", "QS", "01-701-1153", 5005, "ACITM05", "CONSTRUCTIONAL PRAXIS", "ADAS-COG", "", "2", "", "2", 2, "", "", "", "Y", "", 3.0, "BASELINE", 1, "TREATMENT", "2013-09-23", 1], [753, "CDISCPILOT01", "QS", "01-701-1153", 5020, "ACITM05", "CONSTRUCTIONAL PRAXIS", "ADAS-COG", "", "1", "", "1", 1, "", "", "", "", "", 8.0, "WEEK 8", 56, "TREATMENT", "2013-11-18", 57], [754, "CDISCPILOT01", "QS", "01-701-1153", 5035, "ACITM05", "CONSTRUCTIONAL PRAXIS", "ADAS-COG", "", "2", "", "2", 2, "", "", "", "", "", 10.0, "WEEK 16", 112, "TREATMENT", "2014-01-08", 108], [755, "CDISCPILOT01", "QS", "01-701-1153", 5050, "ACITM05", "CONSTRUCTIONAL PRAXIS", "ADAS-COG", "", "2", "", "2", 2, "", "", "", "", "", 12.0, "WEEK 24", 168, "TREATMENT", "2014-03-11", 170], [756, "CDISCPILOT01", "QS", "01-701-1153", 5006, "ACITM06", "IDEATIONAL PRAXIS", "ADAS-COG", "", "1", "", "1", 1, "", "", "", "Y", "", 3.0, "BASELINE", 1, "TREATMENT", "2013-09-23", 1], [757, "CDISCPILOT01", "QS", "01-701-1153", 5021, "ACITM06", "IDEATIONAL PRAXIS", "ADAS-COG", "", "0", "", "0", 0, "", "", "", "", "", 8.0, "WEEK 8", 56, "TREATMENT", "2013-11-18", 57], [758, "CDISCPILOT01", "QS", "01-701-1153", 5036, "ACITM06", "IDEATIONAL PRAXIS", "ADAS-COG", "", "1", "", "1", 1, "", "", "", "", "", 10.0, "WEEK 16", 112, "TREATMENT", "2014-01-08", 108], [759, "CDISCPILOT01", "QS", "01-701-1153", 5051, "ACITM06", "IDEATIONAL PRAXIS", "ADAS-COG", "", "1", "", "1", 1, "", "", "", "", "", 12.0, "WEEK 24", 168, "TREATMENT", "2014-03-11", 170], [760, "CDISCPILOT01", "QS", "01-701-1153", 5007, "ACITM07", "ORIENTATION", "ADAS-COG", "", "6", "", "6", 6, "", "", "", "Y", "", 3.0, "BASELINE", 1, "TREATMENT", "2013-09-23", 1], [761, "CDISCPILOT01", "QS", "01-701-1153", 5022, "ACITM07", "ORIENTATION", "ADAS-COG", "", "7", "", "7", 7, "", "", "", "", "", 8.0, "WEEK 8", 56, "TREATMENT", "2013-11-18", 57], [762, "CDISCPILOT01", "QS", "01-701-1153", 5037, "ACITM07", "ORIENTATION", "ADAS-COG", "", "8", "", "8", 8, "", "", "", "", "", 10.0, "WEEK 16", 112, "TREATMENT", "2014-01-08", 108], [763, "CDISCPILOT01", "QS", "01-701-1153", 5052, "ACITM07", "ORIENTATION", "ADAS-COG", "", "8", "", "8", 8, "", "", "", "", "", 12.0, "WEEK 24", 168, "TREATMENT", "2014-03-11", 170], [764, "CDISCPILOT01", "QS", "01-701-1153", 5008, "ACITM08", "WORD RECOGNITION", "ADAS-COG", "", "10", "", "10", 10, "", "", "", "Y", "", 3.0, "BASELINE", 1, "TREATMENT", "2013-09-23", 1], [765, "CDISCPILOT01", "QS", "01-701-1153", 5023, "ACITM08", "WORD RECOGNITION", "ADAS-COG", "", "12", "", "12", 12, "", "", "", "", "", 8.0, "WEEK 8", 56, "TREATMENT", "2013-11-18", 57], [766, "CDISCPILOT01", "QS", "01-701-1153", 5038, "ACITM08", "WORD RECOGNITION", "ADAS-COG", "", "12", "", "12", 12, "", "", "", "", "", 10.0, "WEEK 16", 112, "TREATMENT", "2014-01-08", 108], [767, "CDISCPILOT01", "QS", "01-701-1153", 5053, "ACITM08", "WORD RECOGNITION", "ADAS-COG", "", "11", "", "11", 11, "", "", "", "", "", 12.0, "WEEK 24", 168, "TREATMENT", "2014-03-11", 170], [768, "CDISCPILOT01", "QS", "01-701-1153", 5009, "ACITM09", "ATTENTION/VISUAL SEARCH TASK", "ADAS-COG", "", "1", "", "1", 1, "", "", "", "Y", "", 3.0, "BASELINE", 1, "TREATMENT", "2013-09-23", 1], [769, "CDISCPILOT01", "QS", "01-701-1153", 5024, "ACITM09", "ATTENTION/VISUAL SEARCH TASK", "ADAS-COG", "", "4", "", "4", 4, "", "", "", "", "", 8.0, "WEEK 8", 56, "TREATMENT", "2013-11-18", 57], [770, "CDISCPILOT01", "QS", "01-701-1153", 5039, "ACITM09", "ATTENTION/VISUAL SEARCH TASK", "ADAS-COG", "", "3", "", "3", 3, "", "", "", "", "", 10.0, "WEEK 16", 112, "TREATMENT", "2014-01-08", 108], [771, "CDISCPILOT01", "QS", "01-701-1153", 5054, "ACITM09", "ATTENTION/VISUAL SEARCH TASK", "ADAS-COG", "", "5", "", "5", 5, "", "", "", "", "", 12.0, "WEEK 24", 168, "TREATMENT", "2014-03-11", 170], [772, "CDISCPILOT01", "QS", "01-701-1153", 5010, "ACITM10", "MAZE SOLUTION", "ADAS-COG", "", "15", "sec", "15", 15, "sec", "", "", "Y", "", 3.0, "BASELINE", 1, "TREATMENT", "2013-09-23", 1], [773, "CDISCPILOT01", "QS", "01-701-1153", 5025, "ACITM10", "MAZE SOLUTION", "ADAS-COG", "", "17", "sec", "17", 17, "sec", "", "", "", "", 8.0, "WEEK 8", 56, "TREATMENT", "2013-11-18", 57], [774, "CDISCPILOT01", "QS", "01-701-1153", 5040, "ACITM10", "MAZE SOLUTION", "ADAS-COG", "", "20", "sec", "20", 20, "sec", "", "", "", "", 10.0, "WEEK 16", 112, "TREATMENT", "2014-01-08", 108], [775, "CDISCPILOT01", "QS", "01-701-1153", 5055, "ACITM10", "MAZE SOLUTION", "ADAS-COG", "", "28", "sec", "28", 28, "sec", "", "", "", "", 12.0, "WEEK 24", 168, "TREATMENT", "2014-03-11", 170], [776, "CDISCPILOT01", "QS", "01-701-1153", 5011, "ACITM11", "SPOKEN LANGUAGE ABILITY", "ADAS-COG", "", "2", "", "2", 2, "", "", "", "Y", "", 3.0, "BASELINE", 1, "TREATMENT", "2013-09-23", 1], [777, "CDISCPILOT01", "QS", "01-701-1153", 5026, "ACITM11", "SPOKEN LANGUAGE ABILITY", "ADAS-COG", "", "2", "", "2", 2, "", "", "", "", "", 8.0, "WEEK 8", 56, "TREATMENT", "2013-11-18", 57], [778, "CDISCPILOT01", "QS", "01-701-1153", 5041, "ACITM11", "SPOKEN LANGUAGE ABILITY", "ADAS-COG", "", "4", "", "4", 4, "", "", "", "", "", 10.0, "WEEK 16", 112, "TREATMENT", "2014-01-08", 108], [779, "CDISCPILOT01", "QS", "01-701-1153", 5056, "ACITM11", "SPOKEN LANGUAGE ABILITY", "ADAS-COG", "", "4", "", "4", 4, "", "", "", "", "", 12.0, "WEEK 24", 168, "TREATMENT", "2014-03-11", 170], [780, "CDISCPILOT01", "QS", "01-701-1153", 5012, "ACITM12", "COMPREHENSION OF SPOKEN LANGUAGE", "ADAS-COG", "", "2", "", "2", 2, "", "", "", "Y", "", 3.0, "BASELINE", 1, "TREATMENT", "2013-09-23", 1], [781, "CDISCPILOT01", "QS", "01-701-1153", 5027, "ACITM12", "COMPREHENSION OF SPOKEN LANGUAGE", "ADAS-COG", "", "2", "", "2", 2, "", "", "", "", "", 8.0, "WEEK 8", 56, "TREATMENT", "2013-11-18", 57], [782, "CDISCPILOT01", "QS", "01-701-1153", 5042, "ACITM12", "COMPREHENSION OF SPOKEN LANGUAGE", "ADAS-COG", "", "3", "", "3", 3, "", "", "", "", "", 10.0, "WEEK 16", 112, "TREATMENT", "2014-01-08", 108], [783, "CDISCPILOT01", "QS", "01-701-1153", 5057, "ACITM12", "COMPREHENSION OF SPOKEN LANGUAGE", "ADAS-COG", "", "3", "", "3", 3, "", "", "", "", "", 12.0, "WEEK 24", 168, "TREATMENT", "2014-03-11", 170], [784, "CDISCPILOT01", "QS", "01-701-1153", 5013, "ACITM13", "WORD FINDING DIFFICULTY IN SPONTANEOUS S", "ADAS-COG", "", "3", "", "3", 3, "", "", "", "Y", "", 3.0, "BASELINE", 1, "TREATMENT", "2013-09-23", 1], [785, "CDISCPILOT01", "QS", "01-701-1153", 5028, "ACITM13", "WORD FINDING DIFFICULTY IN SPONTANEOUS S", "ADAS-COG", "", "2", "", "2", 2, "", "", "", "", "", 8.0, "WEEK 8", 56, "TREATMENT", "2013-11-18", 57], [786, "CDISCPILOT01", "QS", "01-701-1153", 5043, "ACITM13", "WORD FINDING DIFFICULTY IN SPONTANEOUS S", "ADAS-COG", "", "3", "", "3", 3, "", "", "", "", "", 10.0, "WEEK 16", 112, "TREATMENT", "2014-01-08", 108], [787, "CDISCPILOT01", "QS", "01-701-1153", 5058, "ACITM13", "WORD FINDING DIFFICULTY IN SPONTANEOUS S", "ADAS-COG", "", "3", "", "3", 3, "", "", "", "", "", 12.0, "WEEK 24", 168, "TREATMENT", "2014-03-11", 170], [788, "CDISCPILOT01", "QS", "01-701-1153", 5014, "ACITM14", "RECALL OF TEST INSTRUCTIONS", "ADAS-COG", "", "5", "", "5", 5, "", "", "", "Y", "", 3.0, "BASELINE", 1, "TREATMENT", "2013-09-23", 1], [789, "CDISCPILOT01", "QS", "01-701-1153", 5029, "ACITM14", "RECALL OF TEST INSTRUCTIONS", "ADAS-COG", "", "5", "", "5", 5, "", "", "", "", "", 8.0, "WEEK 8", 56, "TREATMENT", "2013-11-18", 57], [790, "CDISCPILOT01", "QS", "01-701-1153", 5044, "ACITM14", "RECALL OF TEST INSTRUCTIONS", "ADAS-COG", "", "5", "", "5", 5, "", "", "", "", "", 10.0, "WEEK 16", 112, "TREATMENT", "2014-01-08", 108], [791, "CDISCPILOT01", "QS", "01-701-1153", 5059, "ACITM14", "RECALL OF TEST INSTRUCTIONS", "ADAS-COG", "", "5", "", "5", 5, "", "", "", "", "", 12.0, "WEEK 24", 168, "TREATMENT", "2014-03-11", 170], [792, "CDISCPILOT01", "QS", "01-701-1153", 5015, "ACTOT", "ADAS-COG(11) Subscore", "ADAS-COG", "", "", "", "48", 48, "", "", "", "Y", "Y", 3.0, "BASELINE", 1, "TREATMENT", "2013-09-23", 1], [793, "CDISCPILOT01", "QS", "01-701-1153", 5030, "ACTOT", "ADAS-COG(11) Subscore", "ADAS-COG", "", "", "", "47", 47, "", "", "", "", "Y", 8.0, "WEEK 8", 56, "TREATMENT", "2013-11-18", 57], [794, "CDISCPILOT01", "QS", "01-701-1153", 5045, "ACTOT", "ADAS-COG(11) Subscore", "ADAS-COG", "", "", "", "55", 55, "", "", "", "", "Y", 10.0, "WEEK 16", 112, "TREATMENT", "2014-01-08", 108], [795, "CDISCPILOT01", "QS", "01-701-1153", 5060, "ACTOT", "ADAS-COG(11) Subscore", "ADAS-COG", "", "", "", "52", 52, "", "", "", "", "Y", 12.0, "WEEK 24", 168, "TREATMENT", "2014-03-11", 170], [796, "CDISCPILOT01", "QS", "01-701-1180", 5001, "ACITM01", "WORD RECALL TASK", "ADAS-COG", "", "7", "", "7", 7, "", "", "", "Y", "", 3.0, "BASELINE", 1, "TREATMENT", "2013-02-12", 1], [797, "CDISCPILOT01", "QS", "01-701-1180", 5016, "ACITM01", "WORD RECALL TASK", "ADAS-COG", "", "5", "", "5", 5, "", "", "", "", "", 7.0, "WEEK 6", 42, "TREATMENT", "2013-03-23", 40], [798, "CDISCPILOT01", "QS", "01-701-1180", 5002, "ACITM02", "NAMING OBJECTS AND FINGERS (REFER TO 5 C", "ADAS-COG", "", "2", "", "2", 2, "", "", "", "Y", "", 3.0, "BASELINE", 1, "TREATMENT", "2013-02-12", 1], [799, "CDISCPILOT01", "QS", "01-701-1180", 5017, "ACITM02", "NAMING OBJECTS AND FINGERS (REFER TO 5 C", "ADAS-COG", "", "5", "", "5", 5, "", "", "", "", "", 7.0, "WEEK 6", 42, "TREATMENT", "2013-03-23", 40], [800, "CDISCPILOT01", "QS", "01-701-1180", 5003, "ACITM03", "DELAYED WORD RECALL", "ADAS-COG", "", "8", "", "8", 8, "", "", "", "Y", "", 3.0, "BASELINE", 1, "TREATMENT", "2013-02-12", 1], [801, "CDISCPILOT01", "QS", "01-701-1180", 5018, "ACITM03", "DELAYED WORD RECALL", "ADAS-COG", "", "9", "", "9", 9, "", "", "", "", "", 7.0, "WEEK 6", 42, "TREATMENT", "2013-03-23", 40], [802, "CDISCPILOT01", "QS", "01-701-1180", 5004, "ACITM04", "COMMANDS", "ADAS-COG", "", "2", "", "2", 2, "", "", "", "Y", "", 3.0, "BASELINE", 1, "TREATMENT", "2013-02-12", 1], [803, "CDISCPILOT01", "QS", "01-701-1180", 5019, "ACITM04", "COMMANDS", "ADAS-COG", "", "3", "", "3", 3, "", "", "", "", "", 7.0, "WEEK 6", 42, "TREATMENT", "2013-03-23", 40], [804, "CDISCPILOT01", "QS", "01-701-1180", 5005, "ACITM05", "CONSTRUCTIONAL PRAXIS", "ADAS-COG", "", "4", "", "4", 4, "", "", "", "Y", "", 3.0, "BASELINE", 1, "TREATMENT", "2013-02-12", 1], [805, "CDISCPILOT01", "QS", "01-701-1180", 5020, "ACITM05", "CONSTRUCTIONAL PRAXIS", "ADAS-COG", "", "4", "", "4", 4, "", "", "", "", "", 7.0, "WEEK 6", 42, "TREATMENT", "2013-03-23", 40], [806, "CDISCPILOT01", "QS", "01-701-1180", 5006, "ACITM06", "IDEATIONAL PRAXIS", "ADAS-COG", "", "0", "", "0", 0, "", "", "", "Y", "", 3.0, "BASELINE", 1, "TREATMENT", "2013-02-12", 1], [807, "CDISCPILOT01", "QS", "01-701-1180", 5021, "ACITM06", "IDEATIONAL PRAXIS", "ADAS-COG", "", "0", "", "0", 0, "", "", "", "", "", 7.0, "WEEK 6", 42, "TREATMENT", "2013-03-23", 40], [808, "CDISCPILOT01", "QS", "01-701-1180", 5007, "ACITM07", "ORIENTATION", "ADAS-COG", "", "2", "", "2", 2, "", "", "", "Y", "", 3.0, "BASELINE", 1, "TREATMENT", "2013-02-12", 1], [809, "CDISCPILOT01", "QS", "01-701-1180", 5022, "ACITM07", "ORIENTATION", "ADAS-COG", "", "0", "", "0", 0, "", "", "", "", "", 7.0, "WEEK 6", 42, "TREATMENT", "2013-03-23", 40], [810, "CDISCPILOT01", "QS", "01-701-1180", 5008, "ACITM08", "WORD RECOGNITION", "ADAS-COG", "", "9", "", "9", 9, "", "", "", "Y", "", 3.0, "BASELINE", 1, "TREATMENT", "2013-02-12", 1], [811, "CDISCPILOT01", "QS", "01-701-1180", 5023, "ACITM08", "WORD RECOGNITION", "ADAS-COG", "", "9", "", "9", 9, "", "", "", "", "", 7.0, "WEEK 6", 42, "TREATMENT", "2013-03-23", 40], [812, "CDISCPILOT01", "QS", "01-701-1180", 5009, "ACITM09", "ATTENTION/VISUAL SEARCH TASK", "ADAS-COG", "", "16", "", "16", 16, "", "", "", "Y", "", 3.0, "BASELINE", 1, "TREATMENT", "2013-02-12", 1], [813, "CDISCPILOT01", "QS", "01-701-1180", 5024, "ACITM09", "ATTENTION/VISUAL SEARCH TASK", "ADAS-COG", "", "9", "", "9", 9, "", "", "", "", "", 7.0, "WEEK 6", 42, "TREATMENT", "2013-03-23", 40], [814, "CDISCPILOT01", "QS", "01-701-1180", 5010, "ACITM10", "MAZE SOLUTION", "ADAS-COG", "", "5", "sec", "5", 5, "sec", "", "", "Y", "", 3.0, "BASELINE", 1, "TREATMENT", "2013-02-12", 1], [815, "CDISCPILOT01", "QS", "01-701-1180", 5025, "ACITM10", "MAZE SOLUTION", "ADAS-COG", "", "2", "sec", "2", 2, "sec", "", "", "", "", 7.0, "WEEK 6", 42, "TREATMENT", "2013-03-23", 40], [816, "CDISCPILOT01", "QS", "01-701-1180", 5011, "ACITM11", "SPOKEN LANGUAGE ABILITY", "ADAS-COG", "", "1", "", "1", 1, "", "", "", "Y", "", 3.0, "BASELINE", 1, "TREATMENT", "2013-02-12", 1], [817, "CDISCPILOT01", "QS", "01-701-1180", 5026, "ACITM11", "SPOKEN LANGUAGE ABILITY", "ADAS-COG", "", "0", "", "0", 0, "", "", "", "", "", 7.0, "WEEK 6", 42, "TREATMENT", "2013-03-23", 40], [818, "CDISCPILOT01", "QS", "01-701-1180", 5012, "ACITM12", "COMPREHENSION OF SPOKEN LANGUAGE", "ADAS-COG", "", "1", "", "1", 1, "", "", "", "Y", "", 3.0, "BASELINE", 1, "TREATMENT", "2013-02-12", 1], [819, "CDISCPILOT01", "QS", "01-701-1180", 5027, "ACITM12", "COMPREHENSION OF SPOKEN LANGUAGE", "ADAS-COG", "", "1", "", "1", 1, "", "", "", "", "", 7.0, "WEEK 6", 42, "TREATMENT", "2013-03-23", 40], [820, "CDISCPILOT01", "QS", "01-701-1180", 5013, "ACITM13", "WORD FINDING DIFFICULTY IN SPONTANEOUS S", "ADAS-COG", "", "1", "", "1", 1, "", "", "", "Y", "", 3.0, "BASELINE", 1, "TREATMENT", "2013-02-12", 1], [821, "CDISCPILOT01", "QS", "01-701-1180", 5028, "ACITM13", "WORD FINDING DIFFICULTY IN SPONTANEOUS S", "ADAS-COG", "", "1", "", "1", 1, "", "", "", "", "", 7.0, "WEEK 6", 42, "TREATMENT", "2013-03-23", 40], [822, "CDISCPILOT01", "QS", "01-701-1180", 5014, "ACITM14", "RECALL OF TEST INSTRUCTIONS", "ADAS-COG", "", "1", "", "1", 1, "", "", "", "Y", "", 3.0, "BASELINE", 1, "TREATMENT", "2013-02-12", 1], [823, "CDISCPILOT01", "QS", "01-701-1180", 5029, "ACITM14", "RECALL OF TEST INSTRUCTIONS", "ADAS-COG", "", "3", "", "3", 3, "", "", "", "", "", 7.0, "WEEK 6", 42, "TREATMENT", "2013-03-23", 40], [824, "CDISCPILOT01", "QS", "01-701-1180", 5015, "ACTOT", "ADAS-COG(11) Subscore", "ADAS-COG", "", "", "", "30", 30, "", "", "", "Y", "Y", 3.0, "BASELINE", 1, "TREATMENT", "2013-02-12", 1], [825, "CDISCPILOT01", "QS", "01-701-1180", 5030, "ACTOT", "ADAS-COG(11) Subscore", "ADAS-COG", "", "", "", "31", 31, "", "", "", "", "Y", 7.0, "WEEK 6", 42, "TREATMENT", "2013-03-23", 40], [826, "CDISCPILOT01", "QS", "01-701-1181", 5001, "ACITM01", "WORD RECALL TASK", "ADAS-COG", "", "7", "", "7", 7, "", "", "", "Y", "", 3.0, "BASELINE", 1, "TREATMENT", "2013-12-05", 1], [827, "CDISCPILOT01", "QS", "01-701-1181", 5016, "ACITM01", "WORD RECALL TASK", "ADAS-COG", "", "9", "", "9", 9, "", "", "", "", "", 4.0, "WEEK 2", 14, "TREATMENT", "2013-12-12", 8], [828, "CDISCPILOT01", "QS", "01-701-1181", 5031, "ACITM01", "WORD RECALL TASK", "ADAS-COG", "", "8", "", "8", 8, "", "", "", "", "", 201.0, "RETRIEVAL", 168, "TREATMENT", "2014-05-23", 170], [829, "CDISCPILOT01", "QS", "01-701-1181", 5002, "ACITM02", "NAMING OBJECTS AND FINGERS (REFER TO 5 C", "ADAS-COG", "", "3", "", "3", 3, "", "", "", "Y", "", 3.0, "BASELINE", 1, "TREATMENT", "2013-12-05", 1], [830, "CDISCPILOT01", "QS", "01-701-1181", 5017, "ACITM02", "NAMING OBJECTS AND FINGERS (REFER TO 5 C", "ADAS-COG", "", "2", "", "2", 2, "", "", "", "", "", 4.0, "WEEK 2", 14, "TREATMENT", "2013-12-12", 8], [831, "CDISCPILOT01", "QS", "01-701-1181", 5032, "ACITM02", "NAMING OBJECTS AND FINGERS (REFER TO 5 C", "ADAS-COG", "", "3", "", "3", 3, "", "", "", "", "", 201.0, "RETRIEVAL", 168, "TREATMENT", "2014-05-23", 170], [832, "CDISCPILOT01", "QS", "01-701-1181", 5003, "ACITM03", "DELAYED WORD RECALL", "ADAS-COG", "", "10", "", "10", 10, "", "", "", "Y", "", 3.0, "BASELINE", 1, "TREATMENT", "2013-12-05", 1], [833, "CDISCPILOT01", "QS", "01-701-1181", 5018, "ACITM03", "DELAYED WORD RECALL", "ADAS-COG", "", "10", "", "10", 10, "", "", "", "", "", 4.0, "WEEK 2", 14, "TREATMENT", "2013-12-12", 8], [834, "CDISCPILOT01", "QS", "01-701-1181", 5033, "ACITM03", "DELAYED WORD RECALL", "ADAS-COG", "", "10", "", "10", 10, "", "", "", "", "", 201.0, "RETRIEVAL", 168, "TREATMENT", "2014-05-23", 170], [835, "CDISCPILOT01", "QS", "01-701-1181", 5004, "ACITM04", "COMMANDS", "ADAS-COG", "", "1", "", "1", 1, "", "", "", "Y", "", 3.0, "BASELINE", 1, "TREATMENT", "2013-12-05", 1], [836, "CDISCPILOT01", "QS", "01-701-1181", 5019, "ACITM04", "COMMANDS", "ADAS-COG", "", "1", "", "1", 1, "", "", "", "", "", 4.0, "WEEK 2", 14, "TREATMENT", "2013-12-12", 8], [837, "CDISCPILOT01", "QS", "01-701-1181", 5034, "ACITM04", "COMMANDS", "ADAS-COG", "", "1", "", "1", 1, "", "", "", "", "", 201.0, "RETRIEVAL", 168, "TREATMENT", "2014-05-23", 170], [838, "CDISCPILOT01", "QS", "01-701-1181", 5005, "ACITM05", "CONSTRUCTIONAL PRAXIS", "ADAS-COG", "", "1", "", "1", 1, "", "", "", "Y", "", 3.0, "BASELINE", 1, "TREATMENT", "2013-12-05", 1], [839, "CDISCPILOT01", "QS", "01-701-1181", 5020, "ACITM05", "CONSTRUCTIONAL PRAXIS", "ADAS-COG", "", "1", "", "1", 1, "", "", "", "", "", 4.0, "WEEK 2", 14, "TREATMENT", "2013-12-12", 8], [840, "CDISCPILOT01", "QS", "01-701-1181", 5035, "ACITM05", "CONSTRUCTIONAL PRAXIS", "ADAS-COG", "", "1", "", "1", 1, "", "", "", "", "", 201.0, "RETRIEVAL", 168, "TREATMENT", "2014-05-23", 170], [841, "CDISCPILOT01", "QS", "01-701-1181", 5006, "ACITM06", "IDEATIONAL PRAXIS", "ADAS-COG", "", "3", "", "3", 3, "", "", "", "Y", "", 3.0, "BASELINE", 1, "TREATMENT", "2013-12-05", 1], [842, "CDISCPILOT01", "QS", "01-701-1181", 5021, "ACITM06", "IDEATIONAL PRAXIS", "ADAS-COG", "", "2", "", "2", 2, "", "", "", "", "", 4.0, "WEEK 2", 14, "TREATMENT", "2013-12-12", 8], [843, "CDISCPILOT01", "QS", "01-701-1181", 5036, "ACITM06", "IDEATIONAL PRAXIS", "ADAS-COG", "", "3", "", "3", 3, "", "", "", "", "", 201.0, "RETRIEVAL", 168, "TREATMENT", "2014-05-23", 170], [844, "CDISCPILOT01", "QS", "01-701-1181", 5007, "ACITM07", "ORIENTATION", "ADAS-COG", "", "5", "", "5", 5, "", "", "", "Y", "", 3.0, "BASELINE", 1, "TREATMENT", "2013-12-05", 1], [845, "CDISCPILOT01", "QS", "01-701-1181", 5022, "ACITM07", "ORIENTATION", "ADAS-COG", "", "7", "", "7", 7, "", "", "", "", "", 4.0, "WEEK 2", 14, "TREATMENT", "2013-12-12", 8], [846, "CDISCPILOT01", "QS", "01-701-1181", 5037, "ACITM07", "ORIENTATION", "ADAS-COG", "", "7", "", "7", 7, "", "", "", "", "", 201.0, "RETRIEVAL", 168, "TREATMENT", "2014-05-23", 170], [847, "CDISCPILOT01", "QS", "01-701-1181", 5008, "ACITM08", "WORD RECOGNITION", "ADAS-COG", "", "7", "", "7", 7, "", "", "", "Y", "", 3.0, "BASELINE", 1, "TREATMENT", "2013-12-05", 1], [848, "CDISCPILOT01", "QS", "01-701-1181", 5023, "ACITM08", "WORD RECOGNITION", "ADAS-COG", "", "12", "", "12", 12, "", "", "", "", "", 4.0, "WEEK 2", 14, "TREATMENT", "2013-12-12", 8], [849, "CDISCPILOT01", "QS", "01-701-1181", 5038, "ACITM08", "WORD RECOGNITION", "ADAS-COG", "", "9", "", "9", 9, "", "", "", "", "", 201.0, "RETRIEVAL", 168, "TREATMENT", "2014-05-23", 170], [850, "CDISCPILOT01", "QS", "01-701-1181", 5009, "ACITM09", "ATTENTION/VISUAL SEARCH TASK", "ADAS-COG", "", "0", "", "0", 0, "", "", "", "Y", "", 3.0, "BASELINE", 1, "TREATMENT", "2013-12-05", 1], [851, "CDISCPILOT01", "QS", "01-701-1181", 5024, "ACITM09", "ATTENTION/VISUAL SEARCH TASK", "ADAS-COG", "", "25", "", "25", 25, "", "", "", "", "", 4.0, "WEEK 2", 14, "TREATMENT", "2013-12-12", 8], [852, "CDISCPILOT01", "QS", "01-701-1181", 5039, "ACITM09", "ATTENTION/VISUAL SEARCH TASK", "ADAS-COG", "", "21", "", "21", 21, "", "", "", "", "", 201.0, "RETRIEVAL", 168, "TREATMENT", "2014-05-23", 170], [853, "CDISCPILOT01", "QS", "01-701-1181", 5010, "ACITM10", "MAZE SOLUTION", "ADAS-COG", "", "10", "sec", "10", 10, "sec", "", "", "Y", "", 3.0, "BASELINE", 1, "TREATMENT", "2013-12-05", 1], [854, "CDISCPILOT01", "QS", "01-701-1181", 5025, "ACITM10", "MAZE SOLUTION", "ADAS-COG", "", "22", "sec", "22", 22, "sec", "", "", "", "", 4.0, "WEEK 2", 14, "TREATMENT", "2013-12-12", 8], [855, "CDISCPILOT01", "QS", "01-701-1181", 5040, "ACITM10", "MAZE SOLUTION", "ADAS-COG", "", "8", "sec", "8", 8, "sec", "", "", "", "", 201.0, "RETRIEVAL", 168, "TREATMENT", "2014-05-23", 170], [856, "CDISCPILOT01", "QS", "01-701-1181", 5011, "ACITM11", "SPOKEN LANGUAGE ABILITY", "ADAS-COG", "", "1", "", "1", 1, "", "", "", "Y", "", 3.0, "BASELINE", 1, "TREATMENT", "2013-12-05", 1], [857, "CDISCPILOT01", "QS", "01-701-1181", 5026, "ACITM11", "SPOKEN LANGUAGE ABILITY", "ADAS-COG", "", "0", "", "0", 0, "", "", "", "", "", 4.0, "WEEK 2", 14, "TREATMENT", "2013-12-12", 8], [858, "CDISCPILOT01", "QS", "01-701-1181", 5041, "ACITM11", "SPOKEN LANGUAGE ABILITY", "ADAS-COG", "", "1", "", "1", 1, "", "", "", "", "", 201.0, "RETRIEVAL", 168, "TREATMENT", "2014-05-23", 170], [859, "CDISCPILOT01", "QS", "01-701-1181", 5012, "ACITM12", "COMPREHENSION OF SPOKEN LANGUAGE", "ADAS-COG", "", "1", "", "1", 1, "", "", "", "Y", "", 3.0, "BASELINE", 1, "TREATMENT", "2013-12-05", 1], [860, "CDISCPILOT01", "QS", "01-701-1181", 5027, "ACITM12", "COMPREHENSION OF SPOKEN LANGUAGE", "ADAS-COG", "", "1", "", "1", 1, "", "", "", "", "", 4.0, "WEEK 2", 14, "TREATMENT", "2013-12-12", 8], [861, "CDISCPILOT01", "QS", "01-701-1181", 5042, "ACITM12", "COMPREHENSION OF SPOKEN LANGUAGE", "ADAS-COG", "", "1", "", "1", 1, "", "", "", "", "", 201.0, "RETRIEVAL", 168, "TREATMENT", "2014-05-23", 170], [862, "CDISCPILOT01", "QS", "01-701-1181", 5013, "ACITM13", "WORD FINDING DIFFICULTY IN SPONTANEOUS S", "ADAS-COG", "", "0", "", "0", 0, "", "", "", "Y", "", 3.0, "BASELINE", 1, "TREATMENT", "2013-12-05", 1], [863, "CDISCPILOT01", "QS", "01-701-1181", 5028, "ACITM13", "WORD FINDING DIFFICULTY IN SPONTANEOUS S", "ADAS-COG", "", "1", "", "1", 1, "", "", "", "", "", 4.0, "WEEK 2", 14, "TREATMENT", "2013-12-12", 8], [864, "CDISCPILOT01", "QS", "01-701-1181", 5043, "ACITM13", "WORD FINDING DIFFICULTY IN SPONTANEOUS S", "ADAS-COG", "", "2", "", "2", 2, "", "", "", "", "", 201.0, "RETRIEVAL", 168, "TREATMENT", "2014-05-23", 170], [865, "CDISCPILOT01", "QS", "01-701-1181", 5014, "ACITM14", "RECALL OF TEST INSTRUCTIONS", "ADAS-COG", "", "3", "", "3", 3, "", "", "", "Y", "", 3.0, "BASELINE", 1, "TREATMENT", "2013-12-05", 1], [866, "CDISCPILOT01", "QS", "01-701-1181", 5029, "ACITM14", "RECALL OF TEST INSTRUCTIONS", "ADAS-COG", "", "3", "", "3", 3, "", "", "", "", "", 4.0, "WEEK 2", 14, "TREATMENT", "2013-12-12", 8], [867, "CDISCPILOT01", "QS", "01-701-1181", 5044, "ACITM14", "RECALL OF TEST INSTRUCTIONS", "ADAS-COG", "", "2", "", "2", 2, "", "", "", "", "", 201.0, "RETRIEVAL", 168, "TREATMENT", "2014-05-23", 170], [868, "CDISCPILOT01", "QS", "01-701-1181", 5015, "ACTOT", "ADAS-COG(11) Subscore", "ADAS-COG", "", "", "", "32", 32, "", "", "", "Y", "Y", 3.0, "BASELINE", 1, "TREATMENT", "2013-12-05", 1], [869, "CDISCPILOT01", "QS", "01-701-1181", 5030, "ACTOT", "ADAS-COG(11) Subscore", "ADAS-COG", "", "", "", "39", 39, "", "", "", "", "Y", 4.0, "WEEK 2", 14, "TREATMENT", "2013-12-12", 8], [870, "CDISCPILOT01", "QS", "01-701-1181", 5045, "ACTOT", "ADAS-COG(11) Subscore", "ADAS-COG", "", "", "", "38", 38, "", "", "", "", "Y", 201.0, "RETRIEVAL", 168, "TREATMENT", "2014-05-23", 170], [871, "CDISCPILOT01", "QS", "01-701-1188", 5001, "ACITM01", "WORD RECALL TASK", "ADAS-COG", "", "5", "", "5", 5, "", "", "", "Y", "", 3.0, "BASELINE", 1, "TREATMENT", "2013-02-15", 1], [872, "CDISCPILOT01", "QS", "01-701-1188", 5016, "ACITM01", "WORD RECALL TASK", "ADAS-COG", "", "4", "", "4", 4, "", "", "", "", "", 7.0, "WEEK 6", 42, "TREATMENT", "2013-03-25", 39], [873, "CDISCPILOT01", "QS", "01-701-1188", 5031, "ACITM01", "WORD RECALL TASK", "ADAS-COG", "", "5", "", "5", 5, "", "", "", "", "", 201.0, "RETRIEVAL", 168, "TREATMENT", "2013-08-04", 171], [874, "CDISCPILOT01", "QS", "01-701-1188", 5002, "ACITM02", "NAMING OBJECTS AND FINGERS (REFER TO 5 C", "ADAS-COG", "", "0", "", "0", 0, "", "", "", "Y", "", 3.0, "BASELINE", 1, "TREATMENT", "2013-02-15", 1], [875, "CDISCPILOT01", "QS", "01-701-1188", 5017, "ACITM02", "NAMING OBJECTS AND FINGERS (REFER TO 5 C", "ADAS-COG", "", "0", "", "0", 0, "", "", "", "", "", 7.0, "WEEK 6", 42, "TREATMENT", "2013-03-25", 39], [876, "CDISCPILOT01", "QS", "01-701-1188", 5032, "ACITM02", "NAMING OBJECTS AND FINGERS (REFER TO 5 C", "ADAS-COG", "", "0", "", "0", 0, "", "", "", "", "", 201.0, "RETRIEVAL", 168, "TREATMENT", "2013-08-04", 171], [877, "CDISCPILOT01", "QS", "01-701-1188", 5003, "ACITM03", "DELAYED WORD RECALL", "ADAS-COG", "", "6", "", "6", 6, "", "", "", "Y", "", 3.0, "BASELINE", 1, "TREATMENT", "2013-02-15", 1], [878, "CDISCPILOT01", "QS", "01-701-1188", 5018, "ACITM03", "DELAYED WORD RECALL", "ADAS-COG", "", "5", "", "5", 5, "", "", "", "", "", 7.0, "WEEK 6", 42, "TREATMENT", "2013-03-25", 39], [879, "CDISCPILOT01", "QS", "01-701-1188", 5033, "ACITM03", "DELAYED WORD RECALL", "ADAS-COG", "", "7", "", "7", 7, "", "", "", "", "", 201.0, "RETRIEVAL", 168, "TREATMENT", "2013-08-04", 171], [880, "CDISCPILOT01", "QS", "01-701-1188", 5004, "ACITM04", "COMMANDS", "ADAS-COG", "", "0", "", "0", 0, "", "", "", "Y", "", 3.0, "BASELINE", 1, "TREATMENT", "2013-02-15", 1], [881, "CDISCPILOT01", "QS", "01-701-1188", 5019, "ACITM04", "COMMANDS", "ADAS-COG", "", "0", "", "0", 0, "", "", "", "", "", 7.0, "WEEK 6", 42, "TREATMENT", "2013-03-25", 39], [882, "CDISCPILOT01", "QS", "01-701-1188", 5034, "ACITM04", "COMMANDS", "ADAS-COG", "", "0", "", "0", 0, "", "", "", "", "", 201.0, "RETRIEVAL", 168, "TREATMENT", "2013-08-04", 171], [883, "CDISCPILOT01", "QS", "01-701-1188", 5005, "ACITM05", "CONSTRUCTIONAL PRAXIS", "ADAS-COG", "", "0", "", "0", 0, "", "", "", "Y", "", 3.0, "BASELINE", 1, "TREATMENT", "2013-02-15", 1], [884, "CDISCPILOT01", "QS", "01-701-1188", 5020, "ACITM05", "CONSTRUCTIONAL PRAXIS", "ADAS-COG", "", "1", "", "1", 1, "", "", "", "", "", 7.0, "WEEK 6", 42, "TREATMENT", "2013-03-25", 39], [885, "CDISCPILOT01", "QS", "01-701-1188", 5035, "ACITM05", "CONSTRUCTIONAL PRAXIS", "ADAS-COG", "", "0", "", "0", 0, "", "", "", "", "", 201.0, "RETRIEVAL", 168, "TREATMENT", "2013-08-04", 171], [886, "CDISCPILOT01", "QS", "01-701-1188", 5006, "ACITM06", "IDEATIONAL PRAXIS", "ADAS-COG", "", "0", "", "0", 0, "", "", "", "Y", "", 3.0, "BASELINE", 1, "TREATMENT", "2013-02-15", 1], [887, "CDISCPILOT01", "QS", "01-701-1188", 5021, "ACITM06", "IDEATIONAL PRAXIS", "ADAS-COG", "", "0", "", "0", 0, "", "", "", "", "", 7.0, "WEEK 6", 42, "TREATMENT", "2013-03-25", 39], [888, "CDISCPILOT01", "QS", "01-701-1188", 5036, "ACITM06", "IDEATIONAL PRAXIS", "ADAS-COG", "", "0", "", "0", 0, "", "", "", "", "", 201.0, "RETRIEVAL", 168, "TREATMENT", "2013-08-04", 171], [889, "CDISCPILOT01", "QS", "01-701-1188", 5007, "ACITM07", "ORIENTATION", "ADAS-COG", "", "0", "", "0", 0, "", "", "", "Y", "", 3.0, "BASELINE", 1, "TREATMENT", "2013-02-15", 1], [890, "CDISCPILOT01", "QS", "01-701-1188", 5022, "ACITM07", "ORIENTATION", "ADAS-COG", "", "0", "", "0", 0, "", "", "", "", "", 7.0, "WEEK 6", 42, "TREATMENT", "2013-03-25", 39], [891, "CDISCPILOT01", "QS", "01-701-1188", 5037, "ACITM07", "ORIENTATION", "ADAS-COG", "", "0", "", "0", 0, "", "", "", "", "", 201.0, "RETRIEVAL", 168, "TREATMENT", "2013-08-04", 171], [892, "CDISCPILOT01", "QS", "01-701-1188", 5008, "ACITM08", "WORD RECOGNITION", "ADAS-COG", "", "3", "", "3", 3, "", "", "", "Y", "", 3.0, "BASELINE", 1, "TREATMENT", "2013-02-15", 1], [893, "CDISCPILOT01", "QS", "01-701-1188", 5023, "ACITM08", "WORD RECOGNITION", "ADAS-COG", "", "3", "", "3", 3, "", "", "", "", "", 7.0, "WEEK 6", 42, "TREATMENT", "2013-03-25", 39], [894, "CDISCPILOT01", "QS", "01-701-1188", 5038, "ACITM08", "WORD RECOGNITION", "ADAS-COG", "", "2", "", "2", 2, "", "", "", "", "", 201.0, "RETRIEVAL", 168, "TREATMENT", "2013-08-04", 171], [895, "CDISCPILOT01", "QS", "01-701-1188", 5009, "ACITM09", "ATTENTION/VISUAL SEARCH TASK", "ADAS-COG", "", "26", "", "26", 26, "", "", "", "Y", "", 3.0, "BASELINE", 1, "TREATMENT", "2013-02-15", 1], [896, "CDISCPILOT01", "QS", "01-701-1188", 5024, "ACITM09", "ATTENTION/VISUAL SEARCH TASK", "ADAS-COG", "", "36", "", "36", 36, "", "", "", "", "", 7.0, "WEEK 6", 42, "TREATMENT", "2013-03-25", 39], [897, "CDISCPILOT01", "QS", "01-701-1188", 5039, "ACITM09", "ATTENTION/VISUAL SEARCH TASK", "ADAS-COG", "", "34", "", "34", 34, "", "", "", "", "", 201.0, "RETRIEVAL", 168, "TREATMENT", "2013-08-04", 171], [898, "CDISCPILOT01", "QS", "01-701-1188", 5010, "ACITM10", "MAZE SOLUTION", "ADAS-COG", "", "4", "sec", "4", 4, "sec", "", "", "Y", "", 3.0, "BASELINE", 1, "TREATMENT", "2013-02-15", 1], [899, "CDISCPILOT01", "QS", "01-701-1188", 5025, "ACITM10", "MAZE SOLUTION", "ADAS-COG", "", "4", "sec", "4", 4, "sec", "", "", "", "", 7.0, "WEEK 6", 42, "TREATMENT", "2013-03-25", 39], [900, "CDISCPILOT01", "QS", "01-701-1188", 5040, "ACITM10", "MAZE SOLUTION", "ADAS-COG", "", "6", "sec", "6", 6, "sec", "", "", "", "", 201.0, "RETRIEVAL", 168, "TREATMENT", "2013-08-04", 171], [901, "CDISCPILOT01", "QS", "01-701-1188", 5011, "ACITM11", "SPOKEN LANGUAGE ABILITY", "ADAS-COG", "", "0", "", "0", 0, "", "", "", "Y", "", 3.0, "BASELINE", 1, "TREATMENT", "2013-02-15", 1], [902, "CDISCPILOT01", "QS", "01-701-1188", 5026, "ACITM11", "SPOKEN LANGUAGE ABILITY", "ADAS-COG", "", "0", "", "0", 0, "", "", "", "", "", 7.0, "WEEK 6", 42, "TREATMENT", "2013-03-25", 39], [903, "CDISCPILOT01", "QS", "01-701-1188", 5041, "ACITM11", "SPOKEN LANGUAGE ABILITY", "ADAS-COG", "", "0", "", "0", 0, "", "", "", "", "", 201.0, "RETRIEVAL", 168, "TREATMENT", "2013-08-04", 171], [904, "CDISCPILOT01", "QS", "01-701-1188", 5012, "ACITM12", "COMPREHENSION OF SPOKEN LANGUAGE", "ADAS-COG", "", "0", "", "0", 0, "", "", "", "Y", "", 3.0, "BASELINE", 1, "TREATMENT", "2013-02-15", 1], [905, "CDISCPILOT01", "QS", "01-701-1188", 5027, "ACITM12", "COMPREHENSION OF SPOKEN LANGUAGE", "ADAS-COG", "", "0", "", "0", 0, "", "", "", "", "", 7.0, "WEEK 6", 42, "TREATMENT", "2013-03-25", 39], [906, "CDISCPILOT01", "QS", "01-701-1188", 5042, "ACITM12", "COMPREHENSION OF SPOKEN LANGUAGE", "ADAS-COG", "", "0", "", "0", 0, "", "", "", "", "", 201.0, "RETRIEVAL", 168, "TREATMENT", "2013-08-04", 171], [907, "CDISCPILOT01", "QS", "01-701-1188", 5013, "ACITM13", "WORD FINDING DIFFICULTY IN SPONTANEOUS S", "ADAS-COG", "", "0", "", "0", 0, "", "", "", "Y", "", 3.0, "BASELINE", 1, "TREATMENT", "2013-02-15", 1], [908, "CDISCPILOT01", "QS", "01-701-1188", 5028, "ACITM13", "WORD FINDING DIFFICULTY IN SPONTANEOUS S", "ADAS-COG", "", "0", "", "0", 0, "", "", "", "", "", 7.0, "WEEK 6", 42, "TREATMENT", "2013-03-25", 39], [909, "CDISCPILOT01", "QS", "01-701-1188", 5043, "ACITM13", "WORD FINDING DIFFICULTY IN SPONTANEOUS S", "ADAS-COG", "", "0", "", "0", 0, "", "", "", "", "", 201.0, "RETRIEVAL", 168, "TREATMENT", "2013-08-04", 171], [910, "CDISCPILOT01", "QS", "01-701-1188", 5014, "ACITM14", "RECALL OF TEST INSTRUCTIONS", "ADAS-COG", "", "0", "", "0", 0, "", "", "", "Y", "", 3.0, "BASELINE", 1, "TREATMENT", "2013-02-15", 1], [911, "CDISCPILOT01", "QS", "01-701-1188", 5029, "ACITM14", "RECALL OF TEST INSTRUCTIONS", "ADAS-COG", "", "0", "", "0", 0, "", "", "", "", "", 7.0, "WEEK 6", 42, "TREATMENT", "2013-03-25", 39], [912, "CDISCPILOT01", "QS", "01-701-1188", 5044, "ACITM14", "RECALL OF TEST INSTRUCTIONS", "ADAS-COG", "", "0", "", "0", 0, "", "", "", "", "", 201.0, "RETRIEVAL", 168, "TREATMENT", "2013-08-04", 171], [913, "CDISCPILOT01", "QS", "01-701-1188", 5015, "ACTOT", "ADAS-COG(11) Subscore", "ADAS-COG", "", "", "", "8", 8, "", "", "", "Y", "Y", 3.0, "BASELINE", 1, "TREATMENT", "2013-02-15", 1], [914, "CDISCPILOT01", "QS", "01-701-1188", 5030, "ACTOT", "ADAS-COG(11) Subscore", "ADAS-COG", "", "", "", "8", 8, "", "", "", "", "Y", 7.0, "WEEK 6", 42, "TREATMENT", "2013-03-25", 39], [915, "CDISCPILOT01", "QS", "01-701-1188", 5045, "ACTOT", "ADAS-COG(11) Subscore", "ADAS-COG", "", "", "", "7", 7, "", "", "", "", "Y", 201.0, "RETRIEVAL", 168, "TREATMENT", "2013-08-04", 171], [916, "CDISCPILOT01", "QS", "01-701-1192", 5001, "ACITM01", "WORD RECALL TASK", "ADAS-COG", "", "3", "", "3", 3, "", "", "", "Y", "", 3.0, "BASELINE", 1, "TREATMENT", "2012-07-22", 1], [917, "CDISCPILOT01", "QS", "01-701-1192", 5016, "ACITM01", "WORD RECALL TASK", "ADAS-COG", "", "5", "", "5", 5, "", "", "", "", "", 8.0, "WEEK 8", 56, "TREATMENT", "2012-09-23", 64], [918, "CDISCPILOT01", "QS", "01-701-1192", 5031, "ACITM01", "WORD RECALL TASK", "ADAS-COG", "", "4", "", "4", 4, "", "", "", "", "", 10.0, "WEEK 16", 112, "TREATMENT", "2012-11-15", 117], [919, "CDISCPILOT01", "QS", "01-701-1192", 5046, "ACITM01", "WORD RECALL TASK", "ADAS-COG", "", "4", "", "4", 4, "", "", "", "", "", 12.0, "WEEK 24", 168, "TREATMENT", "2013-01-11", 174], [920, "CDISCPILOT01", "QS", "01-701-1192", 5002, "ACITM02", "NAMING OBJECTS AND FINGERS (REFER TO 5 C", "ADAS-COG", "", "0", "", "0", 0, "", "", "", "Y", "", 3.0, "BASELINE", 1, "TREATMENT", "2012-07-22", 1], [921, "CDISCPILOT01", "QS", "01-701-1192", 5017, "ACITM02", "NAMING OBJECTS AND FINGERS (REFER TO 5 C", "ADAS-COG", "", "2", "", "2", 2, "", "", "", "", "", 8.0, "WEEK 8", 56, "TREATMENT", "2012-09-23", 64], [922, "CDISCPILOT01", "QS", "01-701-1192", 5032, "ACITM02", "NAMING OBJECTS AND FINGERS (REFER TO 5 C", "ADAS-COG", "", "0", "", "0", 0, "", "", "", "", "", 10.0, "WEEK 16", 112, "TREATMENT", "2012-11-15", 117], [923, "CDISCPILOT01", "QS", "01-701-1192", 5047, "ACITM02", "NAMING OBJECTS AND FINGERS (REFER TO 5 C", "ADAS-COG", "", "0", "", "0", 0, "", "", "", "", "", 12.0, "WEEK 24", 168, "TREATMENT", "2013-01-11", 174], [924, "CDISCPILOT01", "QS", "01-701-1192", 5003, "ACITM03", "DELAYED WORD RECALL", "ADAS-COG", "", "4", "", "4", 4, "", "", "", "Y", "", 3.0, "BASELINE", 1, "TREATMENT", "2012-07-22", 1], [925, "CDISCPILOT01", "QS", "01-701-1192", 5018, "ACITM03", "DELAYED WORD RECALL", "ADAS-COG", "", "6", "", "6", 6, "", "", "", "", "", 8.0, "WEEK 8", 56, "TREATMENT", "2012-09-23", 64], [926, "CDISCPILOT01", "QS", "01-701-1192", 5033, "ACITM03", "DELAYED WORD RECALL", "ADAS-COG", "", "8", "", "8", 8, "", "", "", "", "", 10.0, "WEEK 16", 112, "TREATMENT", "2012-11-15", 117], [927, "CDISCPILOT01", "QS", "01-701-1192", 5048, "ACITM03", "DELAYED WORD RECALL", "ADAS-COG", "", "7", "", "7", 7, "", "", "", "", "", 12.0, "WEEK 24", 168, "TREATMENT", "2013-01-11", 174], [928, "CDISCPILOT01", "QS", "01-701-1192", 5004, "ACITM04", "COMMANDS", "ADAS-COG", "", "0", "", "0", 0, "", "", "", "Y", "", 3.0, "BASELINE", 1, "TREATMENT", "2012-07-22", 1], [929, "CDISCPILOT01", "QS", "01-701-1192", 5019, "ACITM04", "COMMANDS", "ADAS-COG", "", "0", "", "0", 0, "", "", "", "", "", 8.0, "WEEK 8", 56, "TREATMENT", "2012-09-23", 64], [930, "CDISCPILOT01", "QS", "01-701-1192", 5034, "ACITM04", "COMMANDS", "ADAS-COG", "", "0", "", "0", 0, "", "", "", "", "", 10.0, "WEEK 16", 112, "TREATMENT", "2012-11-15", 117], [931, "CDISCPILOT01", "QS", "01-701-1192", 5049, "ACITM04", "COMMANDS", "ADAS-COG", "", "0", "", "0", 0, "", "", "", "", "", 12.0, "WEEK 24", 168, "TREATMENT", "2013-01-11", 174], [932, "CDISCPILOT01", "QS", "01-701-1192", 5005, "ACITM05", "CONSTRUCTIONAL PRAXIS", "ADAS-COG", "", "2", "", "2", 2, "", "", "", "Y", "", 3.0, "BASELINE", 1, "TREATMENT", "2012-07-22", 1], [933, "CDISCPILOT01", "QS", "01-701-1192", 5020, "ACITM05", "CONSTRUCTIONAL PRAXIS", "ADAS-COG", "", "1", "", "1", 1, "", "", "", "", "", 8.0, "WEEK 8", 56, "TREATMENT", "2012-09-23", 64], [934, "CDISCPILOT01", "QS", "01-701-1192", 5035, "ACITM05", "CONSTRUCTIONAL PRAXIS", "ADAS-COG", "", "3", "", "3", 3, "", "", "", "", "", 10.0, "WEEK 16", 112, "TREATMENT", "2012-11-15", 117], [935, "CDISCPILOT01", "QS", "01-701-1192", 5050, "ACITM05", "CONSTRUCTIONAL PRAXIS", "ADAS-COG", "", "3", "", "3", 3, "", "", "", "", "", 12.0, "WEEK 24", 168, "TREATMENT", "2013-01-11", 174], [936, "CDISCPILOT01", "QS", "01-701-1192", 5006, "ACITM06", "IDEATIONAL PRAXIS", "ADAS-COG", "", "0", "", "0", 0, "", "", "", "Y", "", 3.0, "BASELINE", 1, "TREATMENT", "2012-07-22", 1], [937, "CDISCPILOT01", "QS", "01-701-1192", 5021, "ACITM06", "IDEATIONAL PRAXIS", "ADAS-COG", "", "0", "", "0", 0, "", "", "", "", "", 8.0, "WEEK 8", 56, "TREATMENT", "2012-09-23", 64], [938, "CDISCPILOT01", "QS", "01-701-1192", 5036, "ACITM06", "IDEATIONAL PRAXIS", "ADAS-COG", "", "0", "", "0", 0, "", "", "", "", "", 10.0, "WEEK 16", 112, "TREATMENT", "2012-11-15", 117], [939, "CDISCPILOT01", "QS", "01-701-1192", 5051, "ACITM06", "IDEATIONAL PRAXIS", "ADAS-COG", "", "0", "", "0", 0, "", "", "", "", "", 12.0, "WEEK 24", 168, "TREATMENT", "2013-01-11", 174], [940, "CDISCPILOT01", "QS", "01-701-1192", 5007, "ACITM07", "ORIENTATION", "ADAS-COG", "", "3", "", "3", 3, "", "", "", "Y", "", 3.0, "BASELINE", 1, "TREATMENT", "2012-07-22", 1], [941, "CDISCPILOT01", "QS", "01-701-1192", 5022, "ACITM07", "ORIENTATION", "ADAS-COG", "", "3", "", "3", 3, "", "", "", "", "", 8.0, "WEEK 8", 56, "TREATMENT", "2012-09-23", 64], [942, "CDISCPILOT01", "QS", "01-701-1192", 5037, "ACITM07", "ORIENTATION", "ADAS-COG", "", "2", "", "2", 2, "", "", "", "", "", 10.0, "WEEK 16", 112, "TREATMENT", "2012-11-15", 117], [943, "CDISCPILOT01", "QS", "01-701-1192", 5052, "ACITM07", "ORIENTATION", "ADAS-COG", "", "2", "", "2", 2, "", "", "", "", "", 12.0, "WEEK 24", 168, "TREATMENT", "2013-01-11", 174], [944, "CDISCPILOT01", "QS", "01-701-1192", 5008, "ACITM08", "WORD RECOGNITION", "ADAS-COG", "", "1", "", "1", 1, "", "", "", "Y", "", 3.0, "BASELINE", 1, "TREATMENT", "2012-07-22", 1], [945, "CDISCPILOT01", "QS", "01-701-1192", 5023, "ACITM08", "WORD RECOGNITION", "ADAS-COG", "", "1", "", "1", 1, "", "", "", "", "", 8.0, "WEEK 8", 56, "TREATMENT", "2012-09-23", 64], [946, "CDISCPILOT01", "QS", "01-701-1192", 5038, "ACITM08", "WORD RECOGNITION", "ADAS-COG", "", "2", "", "2", 2, "", "", "", "", "", 10.0, "WEEK 16", 112, "TREATMENT", "2012-11-15", 117], [947, "CDISCPILOT01", "QS", "01-701-1192", 5053, "ACITM08", "WORD RECOGNITION", "ADAS-COG", "", "1", "", "1", 1, "", "", "", "", "", 12.0, "WEEK 24", 168, "TREATMENT", "2013-01-11", 174], [948, "CDISCPILOT01", "QS", "01-701-1192", 5009, "ACITM09", "ATTENTION/VISUAL SEARCH TASK", "ADAS-COG", "", "35", "", "35", 35, "", "", "", "Y", "", 3.0, "BASELINE", 1, "TREATMENT", "2012-07-22", 1], [949, "CDISCPILOT01", "QS", "01-701-1192", 5024, "ACITM09", "ATTENTION/VISUAL SEARCH TASK", "ADAS-COG", "", "34", "", "34", 34, "", "", "", "", "", 8.0, "WEEK 8", 56, "TREATMENT", "2012-09-23", 64], [950, "CDISCPILOT01", "QS", "01-701-1192", 5039, "ACITM09", "ATTENTION/VISUAL SEARCH TASK", "ADAS-COG", "", "33", "", "33", 33, "", "", "", "", "", 10.0, "WEEK 16", 112, "TREATMENT", "2012-11-15", 117], [951, "CDISCPILOT01", "QS", "01-701-1192", 5054, "ACITM09", "ATTENTION/VISUAL SEARCH TASK", "ADAS-COG", "", "37", "", "37", 37, "", "", "", "", "", 12.0, "WEEK 24", 168, "TREATMENT", "2013-01-11", 174], [952, "CDISCPILOT01", "QS", "01-701-1192", 5010, "ACITM10", "MAZE SOLUTION", "ADAS-COG", "", "3", "sec", "3", 3, "sec", "", "", "Y", "", 3.0, "BASELINE", 1, "TREATMENT", "2012-07-22", 1], [953, "CDISCPILOT01", "QS", "01-701-1192", 5025, "ACITM10", "MAZE SOLUTION", "ADAS-COG", "", "4", "sec", "4", 4, "sec", "", "", "", "", 8.0, "WEEK 8", 56, "TREATMENT", "2012-09-23", 64], [954, "CDISCPILOT01", "QS", "01-701-1192", 5040, "ACITM10", "MAZE SOLUTION", "ADAS-COG", "", "10", "sec", "10", 10, "sec", "", "", "", "", 10.0, "WEEK 16", 112, "TREATMENT", "2012-11-15", 117], [955, "CDISCPILOT01", "QS", "01-701-1192", 5055, "ACITM10", "MAZE SOLUTION", "ADAS-COG", "", "5", "sec", "5", 5, "sec", "", "", "", "", 12.0, "WEEK 24", 168, "TREATMENT", "2013-01-11", 174], [956, "CDISCPILOT01", "QS", "01-701-1192", 5011, "ACITM11", "SPOKEN LANGUAGE ABILITY", "ADAS-COG", "", "0", "", "0", 0, "", "", "", "Y", "", 3.0, "BASELINE", 1, "TREATMENT", "2012-07-22", 1], [957, "CDISCPILOT01", "QS", "01-701-1192", 5026, "ACITM11", "SPOKEN LANGUAGE ABILITY", "ADAS-COG", "", "0", "", "0", 0, "", "", "", "", "", 8.0, "WEEK 8", 56, "TREATMENT", "2012-09-23", 64], [958, "CDISCPILOT01", "QS", "01-701-1192", 5041, "ACITM11", "SPOKEN LANGUAGE ABILITY", "ADAS-COG", "", "1", "", "1", 1, "", "", "", "", "", 10.0, "WEEK 16", 112, "TREATMENT", "2012-11-15", 117], [959, "CDISCPILOT01", "QS", "01-701-1192", 5056, "ACITM11", "SPOKEN LANGUAGE ABILITY", "ADAS-COG", "", "1", "", "1", 1, "", "", "", "", "", 12.0, "WEEK 24", 168, "TREATMENT", "2013-01-11", 174], [960, "CDISCPILOT01", "QS", "01-701-1192", 5012, "ACITM12", "COMPREHENSION OF SPOKEN LANGUAGE", "ADAS-COG", "", "0", "", "0", 0, "", "", "", "Y", "", 3.0, "BASELINE", 1, "TREATMENT", "2012-07-22", 1], [961, "CDISCPILOT01", "QS", "01-701-1192", 5027, "ACITM12", "COMPREHENSION OF SPOKEN LANGUAGE", "ADAS-COG", "", "0", "", "0", 0, "", "", "", "", "", 8.0, "WEEK 8", 56, "TREATMENT", "2012-09-23", 64], [962, "CDISCPILOT01", "QS", "01-701-1192", 5042, "ACITM12", "COMPREHENSION OF SPOKEN LANGUAGE", "ADAS-COG", "", "1", "", "1", 1, "", "", "", "", "", 10.0, "WEEK 16", 112, "TREATMENT", "2012-11-15", 117], [963, "CDISCPILOT01", "QS", "01-701-1192", 5057, "ACITM12", "COMPREHENSION OF SPOKEN LANGUAGE", "ADAS-COG", "", "1", "", "1", 1, "", "", "", "", "", 12.0, "WEEK 24", 168, "TREATMENT", "2013-01-11", 174], [964, "CDISCPILOT01", "QS", "01-701-1192", 5013, "ACITM13", "WORD FINDING DIFFICULTY IN SPONTANEOUS S", "ADAS-COG", "", "0", "", "0", 0, "", "", "", "Y", "", 3.0, "BASELINE", 1, "TREATMENT", "2012-07-22", 1], [965, "CDISCPILOT01", "QS", "01-701-1192", 5028, "ACITM13", "WORD FINDING DIFFICULTY IN SPONTANEOUS S", "ADAS-COG", "", "0", "", "0", 0, "", "", "", "", "", 8.0, "WEEK 8", 56, "TREATMENT", "2012-09-23", 64], [966, "CDISCPILOT01", "QS", "01-701-1192", 5043, "ACITM13", "WORD FINDING DIFFICULTY IN SPONTANEOUS S", "ADAS-COG", "", "1", "", "1", 1, "", "", "", "", "", 10.0, "WEEK 16", 112, "TREATMENT", "2012-11-15", 117], [967, "CDISCPILOT01", "QS", "01-701-1192", 5058, "ACITM13", "WORD FINDING DIFFICULTY IN SPONTANEOUS S", "ADAS-COG", "", "0", "", "0", 0, "", "", "", "", "", 12.0, "WEEK 24", 168, "TREATMENT", "2013-01-11", 174], [968, "CDISCPILOT01", "QS", "01-701-1192", 5014, "ACITM14", "RECALL OF TEST INSTRUCTIONS", "ADAS-COG", "", "0", "", "0", 0, "", "", "", "Y", "", 3.0, "BASELINE", 1, "TREATMENT", "2012-07-22", 1], [969, "CDISCPILOT01", "QS", "01-701-1192", 5029, "ACITM14", "RECALL OF TEST INSTRUCTIONS", "ADAS-COG", "", "0", "", "0", 0, "", "", "", "", "", 8.0, "WEEK 8", 56, "TREATMENT", "2012-09-23", 64], [970, "CDISCPILOT01", "QS", "01-701-1192", 5044, "ACITM14", "RECALL OF TEST INSTRUCTIONS", "ADAS-COG", "", "1", "", "1", 1, "", "", "", "", "", 10.0, "WEEK 16", 112, "TREATMENT", "2012-11-15", 117], [971, "CDISCPILOT01", "QS", "01-701-1192", 5059, "ACITM14", "RECALL OF TEST INSTRUCTIONS", "ADAS-COG", "", "0", "", "0", 0, "", "", "", "", "", 12.0, "WEEK 24", 168, "TREATMENT", "2013-01-11", 174], [972, "CDISCPILOT01", "QS", "01-701-1192", 5015, "ACTOT", "ADAS-COG(11) Subscore", "ADAS-COG", "", "", "", "9", 9, "", "", "", "Y", "Y", 3.0, "BASELINE", 1, "TREATMENT", "2012-07-22", 1], [973, "CDISCPILOT01", "QS", "01-701-1192", 5030, "ACTOT", "ADAS-COG(11) Subscore", "ADAS-COG", "", "", "", "12", 12, "", "", "", "", "Y", 8.0, "WEEK 8", 56, "TREATMENT", "2012-09-23", 64], [974, "CDISCPILOT01", "QS", "01-701-1192", 5045, "ACTOT", "ADAS-COG(11) Subscore", "ADAS-COG", "", "", "", "15", 15, "", "", "", "", "Y", 10.0, "WEEK 16", 112, "TREATMENT", "2012-11-15", 117], [975, "CDISCPILOT01", "QS", "01-701-1192", 5060, "ACTOT", "ADAS-COG(11) Subscore", "ADAS-COG", "", "", "", "12", 12, "", "", "", "", "Y", 12.0, "WEEK 24", 168, "TREATMENT", "2013-01-11", 174], [976, "CDISCPILOT01", "QS", "01-701-1203", 5001, "ACITM01", "WORD RECALL TASK", "ADAS-COG", "", "5", "", "5", 5, "", "", "", "Y", "", 3.0, "BASELINE", 1, "TREATMENT", "2013-02-02", 1], [977, "CDISCPILOT01", "QS", "01-701-1203", 5016, "ACITM01", "WORD RECALL TASK", "ADAS-COG", "", "6", "", "6", 6, "", "", "", "", "", 8.0, "WEEK 8", 56, "TREATMENT", "2013-03-30", 57], [978, "CDISCPILOT01", "QS", "01-701-1203", 5031, "ACITM01", "WORD RECALL TASK", "ADAS-COG", "", "6", "", "6", 6, "", "", "", "", "", 10.0, "WEEK 16", 112, "TREATMENT", "2013-05-25", 113], [979, "CDISCPILOT01", "QS", "01-701-1203", 5046, "ACITM01", "WORD RECALL TASK", "ADAS-COG", "", "6", "", "6", 6, "", "", "", "", "", 12.0, "WEEK 24", 168, "TREATMENT", "2013-07-22", 171], [980, "CDISCPILOT01", "QS", "01-701-1203", 5002, "ACITM02", "NAMING OBJECTS AND FINGERS (REFER TO 5 C", "ADAS-COG", "", "1", "", "1", 1, "", "", "", "Y", "", 3.0, "BASELINE", 1, "TREATMENT", "2013-02-02", 1], [981, "CDISCPILOT01", "QS", "01-701-1203", 5017, "ACITM02", "NAMING OBJECTS AND FINGERS (REFER TO 5 C", "ADAS-COG", "", "1", "", "1", 1, "", "", "", "", "", 8.0, "WEEK 8", 56, "TREATMENT", "2013-03-30", 57], [982, "CDISCPILOT01", "QS", "01-701-1203", 5032, "ACITM02", "NAMING OBJECTS AND FINGERS (REFER TO 5 C", "ADAS-COG", "", "1", "", "1", 1, "", "", "", "", "", 10.0, "WEEK 16", 112, "TREATMENT", "2013-05-25", 113], [983, "CDISCPILOT01", "QS", "01-701-1203", 5047, "ACITM02", "NAMING OBJECTS AND FINGERS (REFER TO 5 C", "ADAS-COG", "", "1", "", "1", 1, "", "", "", "", "", 12.0, "WEEK 24", 168, "TREATMENT", "2013-07-22", 171], [984, "CDISCPILOT01", "QS", "01-701-1203", 5003, "ACITM03", "DELAYED WORD RECALL", "ADAS-COG", "", "10", "", "10", 10, "", "", "", "Y", "", 3.0, "BASELINE", 1, "TREATMENT", "2013-02-02", 1], [985, "CDISCPILOT01", "QS", "01-701-1203", 5018, "ACITM03", "DELAYED WORD RECALL", "ADAS-COG", "", "10", "", "10", 10, "", "", "", "", "", 8.0, "WEEK 8", 56, "TREATMENT", "2013-03-30", 57], [986, "CDISCPILOT01", "QS", "01-701-1203", 5033, "ACITM03", "DELAYED WORD RECALL", "ADAS-COG", "", "10", "", "10", 10, "", "", "", "", "", 10.0, "WEEK 16", 112, "TREATMENT", "2013-05-25", 113], [987, "CDISCPILOT01", "QS", "01-701-1203", 5048, "ACITM03", "DELAYED WORD RECALL", "ADAS-COG", "", "10", "", "10", 10, "", "", "", "", "", 12.0, "WEEK 24", 168, "TREATMENT", "2013-07-22", 171], [988, "CDISCPILOT01", "QS", "01-701-1203", 5004, "ACITM04", "COMMANDS", "ADAS-COG", "", "1", "", "1", 1, "", "", "", "Y", "", 3.0, "BASELINE", 1, "TREATMENT", "2013-02-02", 1], [989, "CDISCPILOT01", "QS", "01-701-1203", 5019, "ACITM04", "COMMANDS", "ADAS-COG", "", "0", "", "0", 0, "", "", "", "", "", 8.0, "WEEK 8", 56, "TREATMENT", "2013-03-30", 57], [990, "CDISCPILOT01", "QS", "01-701-1203", 5034, "ACITM04", "COMMANDS", "ADAS-COG", "", "0", "", "0", 0, "", "", "", "", "", 10.0, "WEEK 16", 112, "TREATMENT", "2013-05-25", 113], [991, "CDISCPILOT01", "QS", "01-701-1203", 5049, "ACITM04", "COMMANDS", "ADAS-COG", "", "0", "", "0", 0, "", "", "", "", "", 12.0, "WEEK 24", 168, "TREATMENT", "2013-07-22", 171], [992, "CDISCPILOT01", "QS", "01-701-1203", 5005, "ACITM05", "CONSTRUCTIONAL PRAXIS", "ADAS-COG", "", "2", "", "2", 2, "", "", "", "Y", "", 3.0, "BASELINE", 1, "TREATMENT", "2013-02-02", 1], [993, "CDISCPILOT01", "QS", "01-701-1203", 5020, "ACITM05", "CONSTRUCTIONAL PRAXIS", "ADAS-COG", "", "2", "", "2", 2, "", "", "", "", "", 8.0, "WEEK 8", 56, "TREATMENT", "2013-03-30", 57], [994, "CDISCPILOT01", "QS", "01-701-1203", 5035, "ACITM05", "CONSTRUCTIONAL PRAXIS", "ADAS-COG", "", "2", "", "2", 2, "", "", "", "", "", 10.0, "WEEK 16", 112, "TREATMENT", "2013-05-25", 113], [995, "CDISCPILOT01", "QS", "01-701-1203", 5050, "ACITM05", "CONSTRUCTIONAL PRAXIS", "ADAS-COG", "", "1", "", "1", 1, "", "", "", "", "", 12.0, "WEEK 24", 168, "TREATMENT", "2013-07-22", 171], [996, "CDISCPILOT01", "QS", "01-701-1203", 5006, "ACITM06", "IDEATIONAL PRAXIS", "ADAS-COG", "", "0", "", "0", 0, "", "", "", "Y", "", 3.0, "BASELINE", 1, "TREATMENT", "2013-02-02", 1], [997, "CDISCPILOT01", "QS", "01-701-1203", 5021, "ACITM06", "IDEATIONAL PRAXIS", "ADAS-COG", "", "1", "", "1", 1, "", "", "", "", "", 8.0, "WEEK 8", 56, "TREATMENT", "2013-03-30", 57], [998, "CDISCPILOT01", "QS", "01-701-1203", 5036, "ACITM06", "IDEATIONAL PRAXIS", "ADAS-COG", "", "0", "", "0", 0, "", "", "", "", "", 10.0, "WEEK 16", 112, "TREATMENT", "2013-05-25", 113], [999, "CDISCPILOT01", "QS", "01-701-1203", 5051, "ACITM06", "IDEATIONAL PRAXIS", "ADAS-COG", "", "0", "", "0", 0, "", "", "", "", "", 12.0, "WEEK 24", 168, "TREATMENT", "2013-07-22", 171], [1000, "CDISCPILOT01", "QS", "01-701-1203", 5007, "ACITM07", "ORIENTATION", "ADAS-COG", "", "2", "", "2", 2, "", "", "", "Y", "", 3.0, "BASELINE", 1, "TREATMENT", "2013-02-02", 1], [1001, "CDISCPILOT01", "QS", "01-701-1203", 5022, "ACITM07", "ORIENTATION", "ADAS-COG", "", "2", "", "2", 2, "", "", "", "", "", 8.0, "WEEK 8", 56, "TREATMENT", "2013-03-30", 57], [1002, "CDISCPILOT01", "QS", "01-701-1203", 5037, "ACITM07", "ORIENTATION", "ADAS-COG", "", "3", "", "3", 3, "", "", "", "", "", 10.0, "WEEK 16", 112, "TREATMENT", "2013-05-25", 113], [1003, "CDISCPILOT01", "QS", "01-701-1203", 5052, "ACITM07", "ORIENTATION", "ADAS-COG", "", "1", "", "1", 1, "", "", "", "", "", 12.0, "WEEK 24", 168, "TREATMENT", "2013-07-22", 171], [1004, "CDISCPILOT01", "QS", "01-701-1203", 5008, "ACITM08", "WORD RECOGNITION", "ADAS-COG", "", "8", "", "8", 8, "", "", "", "Y", "", 3.0, "BASELINE", 1, "TREATMENT", "2013-02-02", 1], [1005, "CDISCPILOT01", "QS", "01-701-1203", 5023, "ACITM08", "WORD RECOGNITION", "ADAS-COG", "", "4", "", "4", 4, "", "", "", "", "", 8.0, "WEEK 8", 56, "TREATMENT", "2013-03-30", 57], [1006, "CDISCPILOT01", "QS", "01-701-1203", 5038, "ACITM08", "WORD RECOGNITION", "ADAS-COG", "", "8", "", "8", 8, "", "", "", "", "", 10.0, "WEEK 16", 112, "TREATMENT", "2013-05-25", 113], [1007, "CDISCPILOT01", "QS", "01-701-1203", 5053, "ACITM08", "WORD RECOGNITION", "ADAS-COG", "", "6", "", "6", 6, "", "", "", "", "", 12.0, "WEEK 24", 168, "TREATMENT", "2013-07-22", 171], [1008, "CDISCPILOT01", "QS", "01-701-1203", 5009, "ACITM09", "ATTENTION/VISUAL SEARCH TASK", "ADAS-COG", "", "30", "", "30", 30, "", "", "", "Y", "", 3.0, "BASELINE", 1, "TREATMENT", "2013-02-02", 1], [1009, "CDISCPILOT01", "QS", "01-701-1203", 5024, "ACITM09", "ATTENTION/VISUAL SEARCH TASK", "ADAS-COG", "", "24", "", "24", 24, "", "", "", "", "", 8.0, "WEEK 8", 56, "TREATMENT", "2013-03-30", 57], [1010, "CDISCPILOT01", "QS", "01-701-1203", 5039, "ACITM09", "ATTENTION/VISUAL SEARCH TASK", "ADAS-COG", "", "27", "", "27", 27, "", "", "", "", "", 10.0, "WEEK 16", 112, "TREATMENT", "2013-05-25", 113], [1011, "CDISCPILOT01", "QS", "01-701-1203", 5054, "ACITM09", "ATTENTION/VISUAL SEARCH TASK", "ADAS-COG", "", "21", "", "21", 21, "", "", "", "", "", 12.0, "WEEK 24", 168, "TREATMENT", "2013-07-22", 171], [1012, "CDISCPILOT01", "QS", "01-701-1203", 5010, "ACITM10", "MAZE SOLUTION", "ADAS-COG", "", "10", "sec", "10", 10, "sec", "", "", "Y", "", 3.0, "BASELINE", 1, "TREATMENT", "2013-02-02", 1], [1013, "CDISCPILOT01", "QS", "01-701-1203", 5025, "ACITM10", "MAZE SOLUTION", "ADAS-COG", "", "6", "sec", "6", 6, "sec", "", "", "", "", 8.0, "WEEK 8", 56, "TREATMENT", "2013-03-30", 57], [1014, "CDISCPILOT01", "QS", "01-701-1203", 5040, "ACITM10", "MAZE SOLUTION", "ADAS-COG", "", "7", "sec", "7", 7, "sec", "", "", "", "", 10.0, "WEEK 16", 112, "TREATMENT", "2013-05-25", 113], [1015, "CDISCPILOT01", "QS", "01-701-1203", 5055, "ACITM10", "MAZE SOLUTION", "ADAS-COG", "", "4", "sec", "4", 4, "sec", "", "", "", "", 12.0, "WEEK 24", 168, "TREATMENT", "2013-07-22", 171], [1016, "CDISCPILOT01", "QS", "01-701-1203", 5011, "ACITM11", "SPOKEN LANGUAGE ABILITY", "ADAS-COG", "", "0", "", "0", 0, "", "", "", "Y", "", 3.0, "BASELINE", 1, "TREATMENT", "2013-02-02", 1], [1017, "CDISCPILOT01", "QS", "01-701-1203", 5026, "ACITM11", "SPOKEN LANGUAGE ABILITY", "ADAS-COG", "", "1", "", "1", 1, "", "", "", "", "", 8.0, "WEEK 8", 56, "TREATMENT", "2013-03-30", 57], [1018, "CDISCPILOT01", "QS", "01-701-1203", 5041, "ACITM11", "SPOKEN LANGUAGE ABILITY", "ADAS-COG", "", "0", "", "0", 0, "", "", "", "", "", 10.0, "WEEK 16", 112, "TREATMENT", "2013-05-25", 113], [1019, "CDISCPILOT01", "QS", "01-701-1203", 5056, "ACITM11", "SPOKEN LANGUAGE ABILITY", "ADAS-COG", "", "0", "", "0", 0, "", "", "", "", "", 12.0, "WEEK 24", 168, "TREATMENT", "2013-07-22", 171], [1020, "CDISCPILOT01", "QS", "01-701-1203", 5012, "ACITM12", "COMPREHENSION OF SPOKEN LANGUAGE", "ADAS-COG", "", "1", "", "1", 1, "", "", "", "Y", "", 3.0, "BASELINE", 1, "TREATMENT"