{"creationDateTime": "2023-07-31T14:45:30", "datasetJSONVersion": "1.0.0", "fileOID": "UpdatedCDISCPILOT.CDISC SDTM.3.2.SE", "clinicalData": {"studyOID": "UpdatedCDISCPILOT.CDISC SDTM.3.2", "metaDataVersionOID": "MDV.UpdatedCDISCPILOT.CDISC SDTM.3.2", "itemGroupData": {"SE": {"records": 752, "name": "SE", "label": "Subject Elements", "items": [{"OID": "ITEMGROUPDATASEQ", "name": "ITEMGROUPDATASEQ", "label": "Record identifier", "type": "integer"}, {"OID": "IT.SE.STUDYID", "name": "STUDYID", "label": "Study Identifier", "type": "string", "length": 12, "keySequence": 1}, {"OID": "IT.SE.DOMAIN", "name": "DOMAIN", "label": "Domain Abbreviation", "type": "string", "length": 2}, {"OID": "IT.SE.USUBJID", "name": "USUBJID", "label": "Unique Subject Identifier", "type": "string", "length": 11, "keySequence": 2}, {"OID": "IT.SE.SESEQ", "name": "SESEQ", "label": "Sequence Number", "type": "integer", "length": 8}, {"OID": "IT.SE.ETCD", "name": "ETCD", "label": "Element Code", "type": "string", "length": 200, "keySequence": 3}, {"OID": "IT.SE.ELEMENT", "name": "ELEMENT", "label": "Description of Element", "type": "string", "length": 200}, {"OID": "IT.SE.SEUPDES", "name": "SEUPDES", "label": "Description of Unplanned Element", "type": "string", "length": 200}, {"OID": "IT.SE.EPOCH", "name": "EPOCH", "label": "Epoch", "type": "string", "length": 9}, {"OID": "IT.SE.SESTDTC", "name": "SESTDTC", "label": "Start Date/Time of Element", "type": "string", "length": 10}, {"OID": "IT.SE.SEENDTC", "name": "SEENDTC", "label": "End Date/Time of Element", "type": "string", "length": 10}, {"OID": "IT.SE.SESTDY", "name": "SESTDY", "label": "Study Day of Start of Observation", "type": "integer", "length": 8}, {"OID": "IT.SE.SEENDY", "name": "SEENDY", "label": "Study Day of End of Observation", "type": "integer", "length": 8}], "itemData": [[1, "CDISCPILOT01", "SE", "01-701-1015", 1, "SCRN", "Screen", "", "SCREENING", "2013-12-26", "2014-01-02", -7, 1], [2, "CDISCPILOT01", "SE", "01-701-1015", 4, "PBO", "Placebo", "", "TREATMENT", "2014-01-02", "2014-07-02", 1, 182], [3, "CDISCPILOT01", "SE", "01-701-1023", 1, "SCRN", "Screen", "", "SCREENING", "2012-07-22", "2012-08-05", -14, 1], [4, "CDISCPILOT01", "SE", "01-701-1023", 4, "PBO", "Placebo", "", "TREATMENT", "2012-08-05", "2013-02-18", 1, 198], [5, "CDISCPILOT01", "SE", "01-701-1023", 6, "FOLO", "Follow_up", "", "FOLLOW-UP", "2013-02-18", "2013-02-18", 198, 198], [6, "CDISCPILOT01", "SE", "01-701-1028", 1, "SCRN", "Screen", "", "SCREENING", "2013-07-11", "2013-07-19", -8, 1], [7, "CDISCPILOT01", "SE", "01-701-1028", 3, "HIS", "High_Start", "", "TREATMENT", "2013-07-19", "2013-08-01", 1, 14], [8, "CDISCPILOT01", "SE", "01-701-1028", 4, "HIM", "High_Middle", "", "TREATMENT", "2013-08-01", "2014-01-06", 14, 172], [9, "CDISCPILOT01", "SE", "01-701-1028", 5, "HIE", "High_End", "", "TREATMENT", "2014-01-06", "2014-01-14", 172, 180], [10, "CDISCPILOT01", "SE", "01-701-1033", 1, "SCRN", "Screen", "", "SCREENING", "2014-03-10", "2014-03-18", -8, 1], [11, "CDISCPILOT01", "SE", "01-701-1033", 4, "LO", "Low", "", "TREATMENT", "2014-03-18", "2014-04-14", 1, 28], [12, "CDISCPILOT01", "SE", "01-701-1033", 6, "FOLO", "Follow_up", "", "FOLLOW-UP", "2014-04-14", "2014-09-15", 28, 182], [13, "CDISCPILOT01", "SE", "01-701-1034", 1, "SCRN", "Screen", "", "SCREENING", "2014-06-24", "2014-07-01", -7, 1], [14, "CDISCPILOT01", "SE", "01-701-1034", 3, "HIS", "High_Start", "", "TREATMENT", "2014-07-01", "2014-07-15", 1, 15], [15, "CDISCPILOT01", "SE", "01-701-1034", 4, "HIM", "High_Middle", "", "TREATMENT", "2014-07-15", "2014-12-17", 15, 170], [16, "CDISCPILOT01", "SE", "01-701-1034", 5, "HIE", "High_End", "", "TREATMENT", "2014-12-17", "2014-12-30", 170, 183], [17, "CDISCPILOT01", "SE", "01-701-1047", 1, "SCRN", "Screen", "", "SCREENING", "2013-01-22", "2013-02-12", -21, 1], [18, "CDISCPILOT01", "SE", "01-701-1047", 4, "PBO", "Placebo", "", "TREATMENT", "2013-02-12", "2013-04-07", 1, 55], [19, "CDISCPILOT01", "SE", "01-701-1047", 6, "FOLO", "Follow_up", "", "FOLLOW-UP", "2013-04-07", "2013-07-28", 55, 167], [20, "CDISCPILOT01", "SE", "01-701-1057", 1, "SCRN", "Screen", "", "SCREENING", "2013-12-20", "2013-12-27", null, null], [21, "CDISCPILOT01", "SE", "01-701-1097", 1, "SCRN", "Screen", "", "SCREENING", "2013-12-23", "2014-01-01", -9, 1], [22, "CDISCPILOT01", "SE", "01-701-1097", 4, "LO", "Low", "", "TREATMENT", "2014-01-01", "2014-07-09", 1, 190], [23, "CDISCPILOT01", "SE", "01-701-1111", 1, "SCRN", "Screen", "", "SCREENING", "2012-08-25", "2012-09-07", -13, 1], [24, "CDISCPILOT01", "SE", "01-701-1111", 4, "LO", "Low", "", "TREATMENT", "2012-09-07", "2012-09-17", 1, 11], [25, "CDISCPILOT01", "SE", "01-701-1111", 6, "FOLO", "Follow_up", "", "FOLLOW-UP", "2012-09-17", "2013-02-22", 11, 169], [26, "CDISCPILOT01", "SE", "01-701-1115", 1, "SCRN", "Screen", "", "SCREENING", "2012-11-23", "2012-11-30", -7, 1], [27, "CDISCPILOT01", "SE", "01-701-1115", 4, "LO", "Low", "", "TREATMENT", "2012-11-30", "2013-01-23", 1, 55], [28, "CDISCPILOT01", "SE", "01-701-1115", 6, "FOLO", "Follow_up", "", "FOLLOW-UP", "2013-01-23", "2013-05-20", 55, 172], [29, "CDISCPILOT01", "SE", "01-701-1118", 1, "SCRN", "Screen", "", "SCREENING", "2014-02-27", "2014-03-12", -13, 1], [30, "CDISCPILOT01", "SE", "01-701-1118", 4, "PBO", "Placebo", "", "TREATMENT", "2014-03-12", "2014-09-09", 1, 182], [31, "CDISCPILOT01", "SE", "01-701-1130", 1, "SCRN", "Screen", "", "SCREENING", "2014-02-09", "2014-02-15", -6, 1], [32, "CDISCPILOT01", "SE", "01-701-1130", 4, "PBO", "Placebo", "", "TREATMENT", "2014-02-15", "2014-08-16", 1, 183], [33, "CDISCPILOT01", "SE", "01-701-1133", 1, "SCRN", "Screen", "", "SCREENING", "2012-10-23", "2012-10-28", -5, 1], [34, "CDISCPILOT01", "SE", "01-701-1133", 3, "HIS", "High_Start", "", "TREATMENT", "2012-10-28", "2012-11-12", 1, 16], [35, "CDISCPILOT01", "SE", "01-701-1133", 4, "HIM", "High_Middle", "", "TREATMENT", "2012-11-12", "2013-04-18", 16, 173], [36, "CDISCPILOT01", "SE", "01-701-1133", 5, "HIE", "High_End", "", "TREATMENT", "2013-04-18", "2013-04-29", 173, 184], [37, "CDISCPILOT01", "SE", "01-701-1145", 1, "SCRN", "Screen", "", "SCREENING", "2013-09-05", "2013-09-19", null, null], [38, "CDISCPILOT01", "SE", "01-701-1146", 1, "SCRN", "Screen", "", "SCREENING", "2013-05-07", "2013-05-20", -13, 1], [39, "CDISCPILOT01", "SE", "01-701-1146", 3, "HIS", "High_Start", "", "TREATMENT", "2013-05-20", "2013-06-03", 1, 15], [40, "CDISCPILOT01", "SE", "01-701-1146", 4, "HIM", "High_Middle", "", "TREATMENT", "2013-06-03", "2013-06-30", 15, 42], [41, "CDISCPILOT01", "SE", "01-701-1146", 6, "FOLO", "Follow_up", "", "FOLLOW-UP", "2013-06-30", "2013-07-15", 42, 57], [42, "CDISCPILOT01", "SE", "01-701-1148", 1, "SCRN", "Screen", "", "SCREENING", "2013-08-14", "2013-08-23", -9, 1], [43, "CDISCPILOT01", "SE", "01-701-1148", 3, "HIS", "High_Start", "", "TREATMENT", "2013-08-23", "2013-09-05", 1, 14], [44, "CDISCPILOT01", "SE", "01-701-1148", 4, "HIM", "High_Middle", "", "TREATMENT", "2013-09-05", "2014-02-08", 14, 170], [45, "CDISCPILOT01", "SE", "01-701-1148", 5, "HIE", "High_End", "", "TREATMENT", "2014-02-08", "2014-02-20", 170, 182], [46, "CDISCPILOT01", "SE", "01-701-1153", 1, "SCRN", "Screen", "", "SCREENING", "2013-09-06", "2013-09-23", -17, 1], [47, "CDISCPILOT01", "SE", "01-701-1153", 4, "PBO", "Placebo", "", "TREATMENT", "2013-09-23", "2014-04-01", 1, 191], [48, "CDISCPILOT01", "SE", "01-701-1162", 1, "SCRN", "Screen", "", "SCREENING", "2013-04-08", "2013-04-18", null, null], [49, "CDISCPILOT01", "SE", "01-701-1176", 1, "SCRN", "Screen", "", "SCREENING", "2012-09-30", "2012-09-30", null, null], [50, "CDISCPILOT01", "SE", "01-701-1180", 1, "SCRN", "Screen", "", "SCREENING", "2013-01-28", "2013-02-12", -15, 1], [51, "CDISCPILOT01", "SE", "01-701-1180", 3, "HIS", "High_Start", "", "TREATMENT", "2013-02-12", "2013-02-25", 1, 14], [52, "CDISCPILOT01", "SE", "01-701-1180", 4, "HIM", "High_Middle", "", "TREATMENT", "2013-02-25", "2013-03-23", 14, 40], [53, "CDISCPILOT01", "SE", "01-701-1180", 6, "FOLO", "Follow_up", "", "FOLLOW-UP", "2013-03-23", "2013-04-07", 40, 55], [54, "CDISCPILOT01", "SE", "01-701-1181", 1, "SCRN", "Screen", "", "SCREENING", "2013-11-26", "2013-12-05", -9, 1], [55, "CDISCPILOT01", "SE", "01-701-1181", 3, "HIS", "High_Start", "", "TREATMENT", "2013-12-05", "2013-12-12", 1, 8], [56, "CDISCPILOT01", "SE", "01-701-1181", 6, "FOLO", "Follow_up", "", "FOLLOW-UP", "2013-12-12", "2014-05-23", 8, 170], [57, "CDISCPILOT01", "SE", "01-701-1188", 1, "SCRN", "Screen", "", "SCREENING", "2013-02-03", "2013-02-15", -12, 1], [58, "CDISCPILOT01", "SE", "01-701-1188", 4, "LO", "Low", "", "TREATMENT", "2013-02-15", "2013-03-25", 1, 39], [59, "CDISCPILOT01", "SE", "01-701-1188", 6, "FOLO", "Follow_up", "", "FOLLOW-UP", "2013-03-25", "2013-08-04", 39, 171], [60, "CDISCPILOT01", "SE", "01-701-1192", 1, "SCRN", "Screen", "", "SCREENING", "2012-07-08", "2012-07-22", -14, 1], [61, "CDISCPILOT01", "SE", "01-701-1192", 4, "LO", "Low", "", "TREATMENT", "2012-07-22", "2013-01-20", 1, 183], [62, "CDISCPILOT01", "SE", "01-701-1203", 1, "SCRN", "Screen", "", "SCREENING", "2013-01-25", "2013-02-02", -8, 1], [63, "CDISCPILOT01", "SE", "01-701-1203", 4, "PBO", "Placebo", "", "TREATMENT", "2013-02-02", "2013-08-03", 1, 183], [64, "CDISCPILOT01", "SE", "01-701-1211", 1, "SCRN", "Screen", "", "SCREENING", "2012-10-30", "2012-11-15", -16, 1], [65, "CDISCPILOT01", "SE", "01-701-1211", 4, "LO", "Low", "", "TREATMENT", "2012-11-15", "2013-01-14", 1, 61], [66, "CDISCPILOT01", "SE", "01-701-1234", 1, "SCRN", "Screen", "", "SCREENING", "2013-03-20", "2013-03-30", -10, 1], [67, "CDISCPILOT01", "SE", "01-701-1234", 4, "PBO", "Placebo", "", "TREATMENT", "2013-03-30", "2013-09-22", 1, 177], [68, "CDISCPILOT01", "SE", "01-701-1239", 1, "SCRN", "Screen", "", "SCREENING", "2013-12-28", "2014-01-11", -14, 1], [69, "CDISCPILOT01", "SE", "01-701-1239", 3, "HIS", "High_Start", "", "TREATMENT", "2014-01-11", "2014-01-25", 1, 15], [70, "CDISCPILOT01", "SE", "01-701-1239", 4, "HIM", "High_Middle", "", "TREATMENT", "2014-01-25", "2014-06-27", 15, 168], [71, "CDISCPILOT01", "SE", "01-701-1239", 5, "HIE", "High_End", "", "TREATMENT", "2014-06-27", "2014-07-11", 168, 182], [72, "CDISCPILOT01", "SE", "01-701-1240", 1, "SCRN", "Screen", "", "SCREENING", "2013-09-22", "2013-09-24", null, null], [73, "CDISCPILOT01", "SE", "01-701-1275", 1, "SCRN", "Screen", "", "SCREENING", "2014-01-25", "2014-02-07", -13, 1], [74, "CDISCPILOT01", "SE", "01-701-1275", 3, "HIS", "High_Start", "", "TREATMENT", "2014-02-07", "2014-02-22", 1, 16], [75, "CDISCPILOT01", "SE", "01-701-1275", 4, "HIM", "High_Middle", "", "TREATMENT", "2014-02-22", "2014-06-14", 16, 128], [76, "CDISCPILOT01", "SE", "01-701-1287", 1, "SCRN", "Screen", "", "SCREENING", "2014-01-17", "2014-01-25", -8, 1], [77, "CDISCPILOT01", "SE", "01-701-1287", 3, "HIS", "High_Start", "", "TREATMENT", "2014-01-25", "2014-02-11", 1, 18], [78, "CDISCPILOT01", "SE", "01-701-1287", 4, "HIM", "High_Middle", "", "TREATMENT", "2014-02-11", "2014-07-12", 18, 169], [79, "CDISCPILOT01", "SE", "01-701-1287", 5, "HIE", "High_End", "", "TREATMENT", "2014-07-12", "2014-07-26", 169, 183], [80, "CDISCPILOT01", "SE", "01-701-1294", 1, "SCRN", "Screen", "", "SCREENING", "2013-03-17", "2013-03-24", -7, 1], [81, "CDISCPILOT01", "SE", "01-701-1294", 4, "LO", "Low", "", "TREATMENT", "2013-03-24", "2013-06-14", 1, 83], [82, "CDISCPILOT01", "SE", "01-701-1294", 6, "FOLO", "Follow_up", "", "FOLLOW-UP", "2013-06-14", "2013-10-08", 83, 199], [83, "CDISCPILOT01", "SE", "01-701-1302", 1, "SCRN", "Screen", "", "SCREENING", "2013-08-20", "2013-08-29", -9, 1], [84, "CDISCPILOT01", "SE", "01-701-1302", 3, "HIS", "High_Start", "", "TREATMENT", "2013-08-29", "2013-09-15", 1, 18], [85, "CDISCPILOT01", "SE", "01-701-1302", 4, "HIM", "High_Middle", "", "TREATMENT", "2013-09-15", "2013-11-05", 18, 69], [86, "CDISCPILOT01", "SE", "01-701-1302", 6, "FOLO", "Follow_up", "", "FOLLOW-UP", "2013-11-05", "2014-02-13", 69, 169], [87, "CDISCPILOT01", "SE", "01-701-1307", 1, "SCRN", "Screen", "", "SCREENING", "2013-12-08", "2014-01-02", null, null], [88, "CDISCPILOT01", "SE", "01-701-1317", 1, "SCRN", "Screen", "", "SCREENING", "2014-05-10", "2014-05-22", -12, 1], [89, "CDISCPILOT01", "SE", "01-701-1317", 4, "LO", "Low", "", "TREATMENT", "2014-05-22", "2014-11-20", 1, 183], [90, "CDISCPILOT01", "SE", "01-701-1324", 1, "SCRN", "Screen", "", "SCREENING", "2012-09-16", "2012-10-02", -16, 1], [91, "CDISCPILOT01", "SE", "01-701-1324", 4, "LO", "Low", "", "TREATMENT", "2012-10-02", "2013-04-02", 1, 183], [92, "CDISCPILOT01", "SE", "01-701-1341", 1, "SCRN", "Screen", "", "SCREENING", "2012-12-22", "2013-01-05", -14, 1], [93, "CDISCPILOT01", "SE", "01-701-1341", 4, "LO", "Low", "", "TREATMENT", "2013-01-05", "2013-02-07", 1, 34], [94, "CDISCPILOT01", "SE", "01-701-1341", 6, "FOLO", "Follow_up", "", "FOLLOW-UP", "2013-02-07", "2013-02-21", 34, 48], [95, "CDISCPILOT01", "SE", "01-701-1345", 1, "SCRN", "Screen", "", "SCREENING", "2013-10-01", "2013-10-08", -7, 1], [96, "CDISCPILOT01", "SE", "01-701-1345", 4, "PBO", "Placebo", "", "TREATMENT", "2013-10-08", "2014-03-18", 1, 162], [97, "CDISCPILOT01", "SE", "01-701-1356", 1, "SCRN", "Screen", "", "SCREENING", "2014-04-01", "2014-05-28", null, null], [98, "CDISCPILOT01", "SE", "01-701-1360", 1, "SCRN", "Screen", "", "SCREENING", "2013-07-24", "2013-07-31", -7, 1], [99, "CDISCPILOT01", "SE", "01-701-1360", 3, "HIS", "High_Start", "", "TREATMENT", "2013-07-31", "2013-08-14", 1, 15], [100, "CDISCPILOT01", "SE", "01-701-1360", 6, "FOLO", "Follow_up", "", "FOLLOW-UP", "2013-08-14", "2014-02-11", 15, 196], [101, "CDISCPILOT01", "SE", "01-701-1363", 1, "SCRN", "Screen", "", "SCREENING", "2013-05-20", "2013-05-30", -10, 1], [102, "CDISCPILOT01", "SE", "01-701-1363", 4, "PBO", "Placebo", "", "TREATMENT", "2013-05-30", "2013-11-27", 1, 182], [103, "CDISCPILOT01", "SE", "01-701-1369", 1, "SCRN", "Screen", "", "SCREENING", "2013-09-18", "2013-09-30", null, null], [104, "CDISCPILOT01", "SE", "01-701-1383", 1, "SCRN", "Screen", "", "SCREENING", "2013-01-22", "2013-02-04", -13, 1], [105, "CDISCPILOT01", "SE", "01-701-1383", 3, "HIS", "High_Start", "", "TREATMENT", "2013-02-04", "2013-02-19", 1, 16], [106, "CDISCPILOT01", "SE", "01-701-1383", 4, "HIM", "High_Middle", "", "TREATMENT", "2013-02-19", "2013-07-30", 16, 177], [107, "CDISCPILOT01", "SE", "01-701-1383", 5, "HIE", "High_End", "", "TREATMENT", "2013-07-30", "2013-08-06", 177, 184], [108, "CDISCPILOT01", "SE", "01-701-1386", 1, "SCRN", "Screen", "", "SCREENING", "2013-12-28", "2014-01-07", null, null], [109, "CDISCPILOT01", "SE", "01-701-1387", 1, "SCRN", "Screen", "", "SCREENING", "2014-02-23", "2014-03-12", -17, 1], [110, "CDISCPILOT01", "SE", "01-701-1387", 4, "PBO", "Placebo", "", "TREATMENT", "2014-03-12", "2014-03-25", 1, 14], [111, "CDISCPILOT01", "SE", "01-701-1387", 6, "FOLO", "Follow_up", "", "FOLLOW-UP", "2014-03-25", "2014-08-27", 14, 169], [112, "CDISCPILOT01", "SE", "01-701-1392", 1, "SCRN", "Screen", "", "SCREENING", "2012-10-17", "2012-10-28", -11, 1], [113, "CDISCPILOT01", "SE", "01-701-1392", 4, "PBO", "Placebo", "", "TREATMENT", "2012-10-28", "2013-04-28", 1, 183], [114, "CDISCPILOT01", "SE", "01-701-1411", 1, "SCRN", "Screen", "", "SCREENING", "2012-11-14", "2012-11-24", null, null], [115, "CDISCPILOT01", "SE", "01-701-1415", 1, "SCRN", "Screen", "", "SCREENING", "2013-09-15", "2013-09-23", -8, 1], [116, "CDISCPILOT01", "SE", "01-701-1415", 4, "PBO", "Placebo", "", "TREATMENT", "2013-09-23", "2014-03-24", 1, 183], [117, "CDISCPILOT01", "SE", "01-701-1429", 1, "SCRN", "Screen", "", "SCREENING", "2013-02-25", "2013-03-19", -22, 1], [118, "CDISCPILOT01", "SE", "01-701-1429", 4, "LO", "Low", "", "TREATMENT", "2013-03-19", "2013-04-30", 1, 43], [119, "CDISCPILOT01", "SE", "01-701-1440", 1, "SCRN", "Screen", "", "SCREENING", "2013-07-24", "2013-08-08", -15, 1], [120, "CDISCPILOT01", "SE", "01-701-1440", 4, "PBO", "Placebo", "", "TREATMENT", "2013-08-08", "2014-02-05", 1, 182], [121, "CDISCPILOT01", "SE", "01-701-1442", 1, "SCRN", "Screen", "", "SCREENING", "2013-10-17", "2013-10-26", -9, 1], [122, "CDISCPILOT01", "SE", "01-701-1442", 4, "LO", "Low", "", "TREATMENT", "2013-10-26", "2014-04-26", 1, 183], [123, "CDISCPILOT01", "SE", "01-701-1444", 1, "SCRN", "Screen", "", "SCREENING", "2012-12-31", "2013-01-05", -5, 1], [124, "CDISCPILOT01", "SE", "01-701-1444", 3, "HIS", "High_Start", "", "TREATMENT", "2013-01-05", "2013-01-18", 1, 14], [125, "CDISCPILOT01", "SE", "01-701-1444", 4, "HIM", "High_Middle", "", "TREATMENT", "2013-01-18", "2013-02-13", 14, 40], [126, "CDISCPILOT01", "SE", "01-701-1444", 6, "FOLO", "Follow_up", "", "FOLLOW-UP", "2013-02-13", "2013-06-20", 40, 167], [127, "CDISCPILOT01", "SE", "01-702-1082", 1, "SCRN", "Screen", "", "SCREENING", "2013-07-03", "2013-07-26", -23, 1], [128, "CDISCPILOT01", "SE", "01-702-1082", 4, "LO", "Low", "", "TREATMENT", "2013-07-26", "2013-11-17", 1, 115], [129, "CDISCPILOT01", "SE", "01-703-1042", 1, "SCRN", "Screen", "", "SCREENING", "2013-02-23", "2013-03-02", -7, 1], [130, "CDISCPILOT01", "SE", "01-703-1042", 4, "PBO", "Placebo", "", "TREATMENT", "2013-03-02", "2013-08-31", 1, 183], [131, "CDISCPILOT01", "SE", "01-703-1076", 1, "SCRN", "Screen", "", "SCREENING", "2013-10-17", "2013-10-25", -8, 1], [132, "CDISCPILOT01", "SE", "01-703-1076", 3, "HIS", "High_Start", "", "TREATMENT", "2013-10-25", "2013-11-06", 1, 13], [133, "CDISCPILOT01", "SE", "01-703-1076", 4, "HIM", "High_Middle", "", "TREATMENT", "2013-11-06", "2013-12-24", 13, 61], [134, "CDISCPILOT01", "SE", "01-703-1076", 6, "FOLO", "Follow_up", "", "FOLLOW-UP", "2013-12-24", "2014-01-21", 61, 89], [135, "CDISCPILOT01", "SE", "01-703-1086", 1, "SCRN", "Screen", "", "SCREENING", "2012-08-22", "2012-09-02", -11, 1], [136, "CDISCPILOT01", "SE", "01-703-1086", 4, "LO", "Low", "", "TREATMENT", "2012-09-02", "2012-12-24", 1, 114], [137, "CDISCPILOT01", "SE", "01-703-1086", 6, "FOLO", "Follow_up", "", "FOLLOW-UP", "2012-12-24", "2013-03-26", 114, 206], [138, "CDISCPILOT01", "SE", "01-703-1096", 1, "SCRN", "Screen", "", "SCREENING", "2012-12-19", "2013-01-25", -37, 1], [139, "CDISCPILOT01", "SE", "01-703-1096", 4, "PBO", "Placebo", "", "TREATMENT", "2013-01-25", "2013-03-29", 1, 64], [140, "CDISCPILOT01", "SE", "01-703-1100", 1, "SCRN", "Screen", "", "SCREENING", "2013-02-28", "2013-03-13", -13, 1], [141, "CDISCPILOT01", "SE", "01-703-1100", 4, "PBO", "Placebo", "", "TREATMENT", "2013-03-13", "2013-09-14", 1, 186], [142, "CDISCPILOT01", "SE", "01-703-1119", 1, "SCRN", "Screen", "", "SCREENING", "2013-02-02", "2013-02-20", -18, 1], [143, "CDISCPILOT01", "SE", "01-703-1119", 4, "LO", "Low", "", "TREATMENT", "2013-02-20", "2013-06-13", 1, 114], [144, "CDISCPILOT01", "SE", "01-703-1119", 6, "FOLO", "Follow_up", "", "FOLLOW-UP", "2013-06-13", "2013-08-24", 114, 186], [145, "CDISCPILOT01", "SE", "01-703-1175", 1, "SCRN", "Screen", "", "SCREENING", "2013-12-13", "2013-12-20", -7, 1], [146, "CDISCPILOT01", "SE", "01-703-1175", 4, "PBO", "Placebo", "", "TREATMENT", "2013-12-20", "2013-12-31", 1, 12], [147, "CDISCPILOT01", "SE", "01-703-1175", 6, "FOLO", "Follow_up", "", "FOLLOW-UP", "2013-12-31", "2013-12-31", 12, 12], [148, "CDISCPILOT01", "SE", "01-703-1182", 1, "SCRN", "Screen", "", "SCREENING", "2013-10-08", "2013-10-17", -9, 1], [149, "CDISCPILOT01", "SE", "01-703-1182", 4, "LO", "Low", "", "TREATMENT", "2013-10-17", "2013-12-12", 1, 57], [150, "CDISCPILOT01", "SE", "01-703-1182", 6, "FOLO", "Follow_up", "", "FOLLOW-UP", "2013-12-12", "2014-01-14", 57, 90], [151, "CDISCPILOT01", "SE", "01-703-1197", 1, "SCRN", "Screen", "", "SCREENING", "2013-06-01", "2013-06-16", -15, 1], [152, "CDISCPILOT01", "SE", "01-703-1197", 4, "LO", "Low", "", "TREATMENT", "2013-06-16", "2013-07-22", 1, 37], [153, "CDISCPILOT01", "SE", "01-703-1210", 1, "SCRN", "Screen", "", "SCREENING", "2013-03-08", "2013-03-16", -8, 1], [154, "CDISCPILOT01", "SE", "01-703-1210", 4, "PBO", "Placebo", "", "TREATMENT", "2013-03-16", "2013-09-06", 1, 175], [155, "CDISCPILOT01", "SE", "01-703-1258", 1, "SCRN", "Screen", "", "SCREENING", "2012-07-10", "2012-07-20", -10, 1], [156, "CDISCPILOT01", "SE", "01-703-1258", 3, "HIS", "High_Start", "", "TREATMENT", "2012-07-20", "2012-08-01", 1, 13], [157, "CDISCPILOT01", "SE", "01-703-1258", 4, "HIM", "High_Middle", "", "TREATMENT", "2012-08-01", "2012-12-31", 13, 165], [158, "CDISCPILOT01", "SE", "01-703-1258", 5, "HIE", "High_End", "", "TREATMENT", "2012-12-31", "2013-01-21", 165, 186], [159, "CDISCPILOT01", "SE", "01-703-1258", 6, "FOLO", "Follow_up", "", "FOLLOW-UP", "2013-01-21", "2013-01-28", 186, 193], [160, "CDISCPILOT01", "SE", "01-703-1279", 1, "SCRN", "Screen", "", "SCREENING", "2013-04-27", "2013-05-13", -16, 1], [161, "CDISCPILOT01", "SE", "01-703-1279", 4, "LO", "Low", "", "TREATMENT", "2013-05-13", "2013-06-22", 1, 41], [162, "CDISCPILOT01", "SE", "01-703-1295", 1, "SCRN", "Screen", "", "SCREENING", "2013-10-24", "2013-11-21", -28, 1], [163, "CDISCPILOT01", "SE", "01-703-1295", 3, "HIS", "High_Start", "", "TREATMENT", "2013-11-21", "2013-12-05", 1, 15], [164, "CDISCPILOT01", "SE", "01-703-1295", 4, "HIM", "High_Middle", "", "TREATMENT", "2013-12-05", "2014-05-19", 15, 180], [165, "CDISCPILOT01", "SE", "01-703-1299", 1, "SCRN", "Screen", "", "SCREENING", "2012-09-07", "2012-09-12", -5, 1], [166, "CDISCPILOT01", "SE", "01-703-1299", 4, "PBO", "Placebo", "", "TREATMENT", "2012-09-12", "2013-03-27", 1, 197], [167, "CDISCPILOT01", "SE", "01-703-1335", 1, "SCRN", "Screen", "", "SCREENING", "2014-02-28", "2014-03-17", -17, 1], [168, "CDISCPILOT01", "SE", "01-703-1335", 3, "HIS", "High_Start", "", "TREATMENT", "2014-03-17", "2014-03-31", 1, 15], [169, "CDISCPILOT01", "SE", "01-703-1335", 4, "HIM", "High_Middle", "", "TREATMENT", "2014-03-31", "2014-05-24", 15, 69], [170, "CDISCPILOT01", "SE", "01-703-1379", 1, "SCRN", "Screen", "", "SCREENING", "2013-09-12", "2013-09-22", -10, 1], [171, "CDISCPILOT01", "SE", "01-703-1379", 4, "LO", "Low", "", "TREATMENT", "2013-09-22", "2014-03-21", 1, 181], [172, "CDISCPILOT01", "SE", "01-703-1396", 1, "SCRN", "Screen", "", "SCREENING", "2014-02-09", "2014-02-27", null, null], [173, "CDISCPILOT01", "SE", "01-703-1403", 1, "SCRN", "Screen", "", "SCREENING", "2012-12-05", "2012-12-12", -7, 1], [174, "CDISCPILOT01", "SE", "01-703-1403", 3, "HIS", "High_Start", "", "TREATMENT", "2012-12-12", "2012-12-19", 1, 8], [175, "CDISCPILOT01", "SE", "01-703-1403", 6, "FOLO", "Follow_up", "", "FOLLOW-UP", "2012-12-19", "2013-01-08", 8, 28], [176, "CDISCPILOT01", "SE", "01-703-1439", 1, "SCRN", "Screen", "", "SCREENING", "2014-03-04", "2014-03-12", -8, 1], [177, "CDISCPILOT01", "SE", "01-703-1439", 3, "HIS", "High_Start", "", "TREATMENT", "2014-03-12", "2014-03-26", 1, 15], [178, "CDISCPILOT01", "SE", "01-703-1439", 4, "HIM", "High_Middle", "", "TREATMENT", "2014-03-26", "2014-08-28", 15, 170], [179, "CDISCPILOT01", "SE", "01-703-1439", 5, "HIE", "High_End", "", "TREATMENT", "2014-08-28", "2014-09-11", 170, 184], [180, "CDISCPILOT01", "SE", "01-704-1008", 1, "SCRN", "Screen", "", "SCREENING", "2013-01-06", "2013-01-13", -7, 1], [181, "CDISCPILOT01", "SE", "01-704-1008", 3, "HIS", "High_Start", "", "TREATMENT", "2013-01-13", "2013-01-28", 1, 16], [182, "CDISCPILOT01", "SE", "01-704-1008", 4, "HIM", "High_Middle", "", "TREATMENT", "2013-01-28", "2013-02-25", 16, 44], [183, "CDISCPILOT01", "SE", "01-704-1009", 1, "SCRN", "Screen", "", "SCREENING", "2013-08-20", "2013-08-27", -7, 1], [184, "CDISCPILOT01", "SE", "01-704-1009", 4, "LO", "Low", "", "TREATMENT", "2013-08-27", "2013-10-02", 1, 37], [185, "CDISCPILOT01", "SE", "01-704-1010", 1, "SCRN", "Screen", "", "SCREENING", "2014-02-08", "2014-02-21", -13, 1], [186, "CDISCPILOT01", "SE", "01-704-1010", 4, "PBO", "Placebo", "", "TREATMENT", "2014-02-21", "2014-07-09", 1, 139], [187, "CDISCPILOT01", "SE", "01-704-1017", 1, "SCRN", "Screen", "", "SCREENING", "2013-09-20", "2013-10-06", -16, 1], [188, "CDISCPILOT01", "SE", "01-704-1017", 3, "HIS", "High_Start", "", "TREATMENT", "2013-10-06", "2013-10-19", 1, 14], [189, "CDISCPILOT01", "SE", "01-704-1017", 4, "HIM", "High_Middle", "", "TREATMENT", "2013-10-19", "2013-11-24", 14, 50], [190, "CDISCPILOT01", "SE", "01-704-1017", 6, "FOLO", "Follow_up", "", "FOLLOW-UP", "2013-11-24", "2013-12-06", 50, 62], [191, "CDISCPILOT01", "SE", "01-704-1025", 1, "SCRN", "Screen", "", "SCREENING", "2013-09-18", "2013-09-27", -9, 1], [192, "CDISCPILOT01", "SE", "01-704-1025", 4, "LO", "Low", "", "TREATMENT", "2013-09-27", "2013-11-29", 1, 64], [193, "CDISCPILOT01", "SE", "01-704-1065", 1, "SCRN", "Screen", "", "SCREENING", "2013-10-17", "2013-10-24", -7, 1], [194, "CDISCPILOT01", "SE", "01-704-1065", 3, "HIS", "High_Start", "", "TREATMENT", "2013-10-24", "2013-11-07", 1, 15], [195, "CDISCPILOT01", "SE", "01-704-1065", 4, "HIM", "High_Middle", "", "TREATMENT", "2013-11-07", "2013-12-24", 15, 62], [196, "CDISCPILOT01", "SE", "01-704-1065", 6, "FOLO", "Follow_up", "", "FOLLOW-UP", "2013-12-24", "2014-02-17", 62, 117], [197, "CDISCPILOT01", "SE", "01-704-1074", 1, "SCRN", "Screen", "", "SCREENING", "2014-01-19", "2014-01-22", -3, 1], [198, "CDISCPILOT01", "SE", "01-704-1074", 3, "HIS", "High_Start", "", "TREATMENT", "2014-01-22", "2014-02-09", 1, 19], [199, "CDISCPILOT01", "SE", "01-704-1074", 4, "HIM", "High_Middle", "", "TREATMENT", "2014-02-09", "2014-03-31", 19, 69], [200, "CDISCPILOT01", "SE", "01-704-1093", 1, "SCRN", "Screen", "", "SCREENING", "2013-02-22", "2013-03-15", -21, 1], [201, "CDISCPILOT01", "SE", "01-704-1093", 3, "HIS", "High_Start", "", "TREATMENT", "2013-03-15", "2013-03-30", 1, 16], [202, "CDISCPILOT01", "SE", "01-704-1093", 4, "HIM", "High_Middle", "", "TREATMENT", "2013-03-30", "2013-06-20", 16, 98], [203, "CDISCPILOT01", "SE", "01-704-1093", 6, "FOLO", "Follow_up", "", "FOLLOW-UP", "2013-06-20", "2013-12-25", 98, 286], [204, "CDISCPILOT01", "SE", "01-704-1114", 1, "SCRN", "Screen", "", "SCREENING", "2013-01-09", "2013-01-23", -14, 1], [205, "CDISCPILOT01", "SE", "01-704-1114", 4, "LO", "Low", "", "TREATMENT", "2013-01-23", "2013-07-08", 1, 167], [206, "CDISCPILOT01", "SE", "01-704-1120", 1, "SCRN", "Screen", "", "SCREENING", "2013-11-18", "2013-12-02", -14, 1], [207, "CDISCPILOT01", "SE", "01-704-1120", 4, "LO", "Low", "", "TREATMENT", "2013-12-02", "2014-02-03", 1, 64], [208, "CDISCPILOT01", "SE", "01-704-1120", 6, "FOLO", "Follow_up", "", "FOLLOW-UP", "2014-02-03", "2014-03-10", 64, 99], [209, "CDISCPILOT01", "SE", "01-704-1127", 1, "SCRN", "Screen", "", "SCREENING", "2013-09-16", "2013-10-02", -16, 1], [210, "CDISCPILOT01", "SE", "01-704-1127", 4, "PBO", "Placebo", "", "TREATMENT", "2013-10-02", "2014-03-31", 1, 181], [211, "CDISCPILOT01", "SE", "01-704-1135", 1, "SCRN", "Screen", "", "SCREENING", "2013-10-23", "2013-10-31", -8, 1], [212, "CDISCPILOT01", "SE", "01-704-1135", 4, "LO", "Low", "", "TREATMENT", "2013-10-31", "2014-05-16", 1, 198], [213, "CDISCPILOT01", "SE", "01-704-1164", 1, "SCRN", "Screen", "", "SCREENING", "2012-09-11", "2012-09-19", -8, 1], [214, "CDISCPILOT01", "SE", "01-704-1164", 4, "PBO", "Placebo", "", "TREATMENT", "2012-09-19", "2013-04-04", 1, 198], [215, "CDISCPILOT01", "SE", "01-704-1218", 1, "SCRN", "Screen", "", "SCREENING", "2012-11-11", "2012-11-19", -8, 1], [216, "CDISCPILOT01", "SE", "01-704-1218", 4, "LO", "Low", "", "TREATMENT", "2012-11-19", "2013-05-27", 1, 190], [217, "CDISCPILOT01", "SE", "01-704-1233", 1, "SCRN", "Screen", "", "SCREENING", "2013-03-08", "2013-03-21", -13, 1], [218, "CDISCPILOT01", "SE", "01-704-1233", 4, "PBO", "Placebo", "", "TREATMENT", "2013-03-21", "2013-07-14", 1, 116], [219, "CDISCPILOT01", "SE", "01-704-1241", 1, "SCRN", "Screen", "", "SCREENING", "2013-08-14", "2013-08-25", -11, 1], [220, "CDISCPILOT01", "SE", "01-704-1241", 3, "HIS", "High_Start", "", "TREATMENT", "2013-08-25", "2013-09-05", 1, 12], [221, "CDISCPILOT01", "SE", "01-704-1241", 4, "HIM", "High_Middle", "", "TREATMENT", "2013-09-05", "2013-10-31", 12, 68], [222, "CDISCPILOT01", "SE", "01-704-1241", 6, "FOLO", "Follow_up", "", "FOLLOW-UP", "2013-10-31", "2014-01-22", 68, 151], [223, "CDISCPILOT01", "SE", "01-704-1260", 1, "SCRN", "Screen", "", "SCREENING", "2012-08-23", "2012-08-30", -7, 1], [224, "CDISCPILOT01", "SE", "01-704-1260", 4, "PBO", "Placebo", "", "TREATMENT", "2012-08-30", "2013-01-18", 1, 142], [225, "CDISCPILOT01", "SE", "01-704-1266", 1, "SCRN", "Screen", "", "SCREENING", "2013-10-05", "2013-10-13", -8, 1], [226, "CDISCPILOT01", "SE", "01-704-1266", 3, "HIS", "High_Start", "", "TREATMENT", "2013-10-13", "2013-10-27", 1, 15], [227, "CDISCPILOT01", "SE", "01-704-1266", 4, "HIM", "High_Middle", "", "TREATMENT", "2013-10-27", "2013-12-06", 15, 55], [228, "CDISCPILOT01", "SE", "01-704-1266", 6, "FOLO", "Follow_up", "", "FOLLOW-UP", "2013-12-06", "2014-01-03", 55, 83], [229, "CDISCPILOT01", "SE", "01-704-1323", 1, "SCRN", "Screen", "", "SCREENING", "2013-06-13", "2013-07-08", -25, 1], [230, "CDISCPILOT01", "SE", "01-704-1323", 4, "LO", "Low", "", "TREATMENT", "2013-07-08", "2013-08-08", 1, 32], [231, "CDISCPILOT01", "SE", "01-704-1323", 6, "FOLO", "Follow_up", "", "FOLLOW-UP", "2013-08-08", "2013-10-01", 32, 86], [232, "CDISCPILOT01", "SE", "01-704-1325", 1, "SCRN", "Screen", "", "SCREENING", "2014-04-16", "2014-04-23", -7, 1], [233, "CDISCPILOT01", "SE", "01-704-1325", 4, "LO", "Low", "", "TREATMENT", "2014-04-23", "2014-08-06", 1, 106], [234, "CDISCPILOT01", "SE", "01-704-1332", 1, "SCRN", "Screen", "", "SCREENING", "2013-11-24", "2013-12-09", -15, 1], [235, "CDISCPILOT01", "SE", "01-704-1332", 3, "HIS", "High_Start", "", "TREATMENT", "2013-12-09", "2013-12-23", 1, 15], [236, "CDISCPILOT01", "SE", "01-704-1332", 4, "HIM", "High_Middle", "", "TREATMENT", "2013-12-23", "2014-02-16", 15, 70], [237, "CDISCPILOT01", "SE", "01-704-1332", 6, "FOLO", "Follow_up", "", "FOLLOW-UP", "2014-02-16", "2014-02-24", 70, 78], [238, "CDISCPILOT01", "SE", "01-704-1351", 1, "SCRN", "Screen", "", "SCREENING", "2013-09-26", "2013-10-12", -16, 1], [239, "CDISCPILOT01", "SE", "01-704-1351", 4, "PBO", "Placebo", "", "TREATMENT", "2013-10-12", "2014-04-18", 1, 189], [240, "CDISCPILOT01", "SE", "01-704-1388", 1, "SCRN", "Screen", "", "SCREENING", "2012-11-28", "2012-12-07", -9, 1], [241, "CDISCPILOT01", "SE", "01-704-1388", 4, "PBO", "Placebo", "", "TREATMENT", "2012-12-07", "2013-06-19", 1, 195], [242, "CDISCPILOT01", "SE", "01-704-1435", 1, "SCRN", "Screen", "", "SCREENING", "2012-11-01", "2012-11-17", -16, 1], [243, "CDISCPILOT01", "SE", "01-704-1435", 4, "PBO", "Placebo", "", "TREATMENT", "2012-11-17", "2013-01-12", 1, 57], [244, "CDISCPILOT01", "SE", "01-704-1445", 1, "SCRN", "Screen", "", "SCREENING", "2014-05-01", "2014-05-11", -10, 1], [245, "CDISCPILOT01", "SE", "01-704-1445", 4, "PBO", "Placebo", "", "TREATMENT", "2014-05-11", "2014-11-01", 1, 175], [246, "CDISCPILOT01", "SE", "01-705-1011", 1, "SCRN", "Screen", "", "SCREENING", "2013-09-01", "2013-09-13", null, null], [247, "CDISCPILOT01", "SE", "01-705-1018", 1, "SCRN", "Screen", "", "SCREENING", "2013-06-30", "2013-07-05", -5, 1], [248, "CDISCPILOT01", "SE", "01-705-1018", 4, "PBO", "Placebo", "", "TREATMENT", "2013-07-05", "2013-07-12", 1, 8], [249, "CDISCPILOT01", "SE", "01-705-1031", 1, "SCRN", "Screen", "", "SCREENING", "2013-11-17", "2013-11-27", -10, 1], [250, "CDISCPILOT01", "SE", "01-705-1031", 4, "LO", "Low", "", "TREATMENT", "2013-11-27", "2014-05-11", 1, 166], [251, "CDISCPILOT01", "SE", "01-705-1058", 1, "SCRN", "Screen", "", "SCREENING", "2013-12-02", "2013-12-06", null, null], [252, "CDISCPILOT01", "SE", "01-705-1059", 1, "SCRN", "Screen", "", "SCREENING", "2013-08-02", "2013-08-05", -3, 1], [253, "CDISCPILOT01", "SE", "01-705-1059", 4, "PBO", "Placebo", "", "TREATMENT", "2013-08-05", "2013-12-05", 1, 123], [254, "CDISCPILOT01", "SE", "01-705-1059", 6, "FOLO", "Follow_up", "", "FOLLOW-UP", "2013-12-05", "2014-02-06", 123, 186], [255, "CDISCPILOT01", "SE", "01-705-1112", 1, "SCRN", "Screen", "", "SCREENING", "2014-02-23", "2014-02-24", null, null], [256, "CDISCPILOT01", "SE", "01-705-1186", 1, "SCRN", "Screen", "", "SCREENING", "2014-01-03", "2014-01-08", -5, 1], [257, "CDISCPILOT01", "SE", "01-705-1186", 4, "PBO", "Placebo", "", "TREATMENT", "2014-01-08", "2014-02-07", 1, 31], [258, "CDISCPILOT01", "SE", "01-705-1199", 1, "SCRN", "Screen", "", "SCREENING", "2013-09-11", "2013-09-16", -5, 1], [259, "CDISCPILOT01", "SE", "01-705-1199", 4, "LO", "Low", "", "TREATMENT", "2013-09-16", "2013-09-29", 1, 14], [260, "CDISCPILOT01", "SE", "01-705-1199", 6, "FOLO", "Follow_up", "", "FOLLOW-UP", "2013-09-29", "2013-09-29", 14, 14], [261, "CDISCPILOT01", "SE", "01-705-1243", 1, "SCRN", "Screen", "", "SCREENING", "2013-02-26", "2013-03-04", null, null], [262, "CDISCPILOT01", "SE", "01-705-1280", 1, "SCRN", "Screen", "", "SCREENING", "2014-01-11", "2014-01-17", -6, 1], [263, "CDISCPILOT01", "SE", "01-705-1280", 3, "HIS", "High_Start", "", "TREATMENT", "2014-01-17", "2014-01-31", 1, 15], [264, "CDISCPILOT01", "SE", "01-705-1280", 4, "HIM", "High_Middle", "", "TREATMENT", "2014-01-31", "2014-07-11", 15, 176], [265, "CDISCPILOT01", "SE", "01-705-1280", 5, "HIE", "High_End", "", "TREATMENT", "2014-07-11", "2014-07-25", 176, 190], [266, "CDISCPILOT01", "SE", "01-705-1281", 1, "SCRN", "Screen", "", "SCREENING", "2013-11-26", "2013-11-28", -2, 1], [267, "CDISCPILOT01", "SE", "01-705-1281", 3, "HIS", "High_Start", "", "TREATMENT", "2013-11-28", "2013-12-15", 1, 18], [268, "CDISCPILOT01", "SE", "01-705-1281", 4, "HIM", "High_Middle", "", "TREATMENT", "2013-12-15", "2014-03-17", 18, 110], [269, "CDISCPILOT01", "SE", "01-705-1281", 6, "FOLO", "Follow_up", "", "FOLLOW-UP", "2014-03-17", "2014-04-20", 110, 144], [270, "CDISCPILOT01", "SE", "01-705-1282", 1, "SCRN", "Screen", "", "SCREENING", "2012-12-23", "2012-12-26", -3, 1], [271, "CDISCPILOT01", "SE", "01-705-1282", 4, "PBO", "Placebo", "", "TREATMENT", "2012-12-26", "2013-06-24", 1, 181], [272, "CDISCPILOT01", "SE", "01-705-1292", 1, "SCRN", "Screen", "", "SCREENING", "2013-10-11", "2013-10-14", -3, 1], [273, "CDISCPILOT01", "SE", "01-705-1292", 4, "LO", "Low", "", "TREATMENT", "2013-10-14", "2014-05-14", 1, 213], [274, "CDISCPILOT01", "SE", "01-705-1303", 1, "SCRN", "Screen", "", "SCREENING", "2013-12-10", "2013-12-16", -6, 1], [275, "CDISCPILOT01", "SE", "01-705-1303", 3, "HIS", "High_Start", "", "TREATMENT", "2013-12-16", "2013-12-30", 1, 15], [276, "CDISCPILOT01", "SE", "01-705-1303", 4, "HIM", "High_Middle", "", "TREATMENT", "2013-12-30", "2014-06-02", 15, 169], [277, "CDISCPILOT01", "SE", "01-705-1310", 1, "SCRN", "Screen", "", "SCREENING", "2013-10-26", "2013-11-02", -7, 1], [278, "CDISCPILOT01", "SE", "01-705-1310", 3, "HIS", "High_Start", "", "TREATMENT", "2013-11-02", "2013-11-22", 1, 21], [279, "CDISCPILOT01", "SE", "01-705-1310", 4, "HIM", "High_Middle", "", "TREATMENT", "2013-11-22", "2014-01-23", 21, 83], [280, "CDISCPILOT01", "SE", "01-705-1310", 6, "FOLO", "Follow_up", "", "FOLLOW-UP", "2014-01-23", "2014-02-24", 83, 115], [281, "CDISCPILOT01", "SE", "01-705-1349", 1, "SCRN", "Screen", "", "SCREENING", "2013-02-24", "2013-03-10", -14, 1], [282, "CDISCPILOT01", "SE", "01-705-1349", 4, "PBO", "Placebo", "", "TREATMENT", "2013-03-10", "2013-09-08", 1, 183], [283, "CDISCPILOT01", "SE", "01-705-1377", 1, "SCRN", "Screen", "", "SCREENING", "2013-12-29", "2014-01-04", -6, 1], [284, "CDISCPILOT01", "SE", "01-705-1377", 3, "HIS", "High_Start", "", "TREATMENT", "2014-01-04", "2014-01-25", 1, 22], [285, "CDISCPILOT01", "SE", "01-705-1377", 4, "HIM", "High_Middle", "", "TREATMENT", "2014-01-25", "2014-03-07", 22, 63], [286, "CDISCPILOT01", "SE", "01-705-1382", 1, "SCRN", "Screen", "", "SCREENING", "2013-05-09", "2013-05-13", -4, 1], [287, "CDISCPILOT01", "SE", "01-705-1382", 3, "HIS", "High_Start", "", "TREATMENT", "2013-05-13", "2013-05-13", 1, 1], [288, "CDISCPILOT01", "SE", "01-705-1393", 1, "SCRN", "Screen", "", "SCREENING", "2012-09-02", "2012-09-07", -5, 1], [289, "CDISCPILOT01", "SE", "01-705-1393", 4, "LO", "Low", "", "TREATMENT", "2012-09-07", "2013-02-20", 1, 167], [290, "CDISCPILOT01", "SE", "01-705-1393", 6, "FOLO", "Follow_up", "", "FOLLOW-UP", "2013-02-20", "2013-04-25", 167, 231], [291, "CDISCPILOT01", "SE", "01-705-1421", 1, "SCRN", "Screen", "", "SCREENING", "2013-01-14", "2013-01-16", null, null], [292, "CDISCPILOT01", "SE", "01-705-1431", 1, "SCRN", "Screen", "", "SCREENING", "2013-06-16", "2013-06-23", -7, 1], [293, "CDISCPILOT01", "SE", "01-705-1431", 4, "LO", "Low", "", "TREATMENT", "2013-06-23", "2013-12-19", 1, 180], [294, "CDISCPILOT01", "SE", "01-706-1041", 1, "SCRN", "Screen", "", "SCREENING", "2013-12-21", "2013-12-31", -10, 1], [295, "CDISCPILOT01", "SE", "01-706-1041", 4, "PBO", "Placebo", "", "TREATMENT", "2013-12-31", "2014-07-29", 1, 211], [296, "CDISCPILOT01", "SE", "01-706-1049", 1, "SCRN", "Screen", "", "SCREENING", "2013-04-30", "2013-05-14", -14, 1], [297, "CDISCPILOT01", "SE", "01-706-1049", 3, "HIS", "High_Start", "", "TREATMENT", "2013-05-14", "2013-05-28", 1, 15], [298, "CDISCPILOT01", "SE", "01-706-1049", 4, "HIM", "High_Middle", "", "TREATMENT", "2013-05-28", "2013-06-25", 15, 43], [299, "CDISCPILOT01", "SE", "01-706-1049", 6, "FOLO", "Follow_up", "", "FOLLOW-UP", "2013-06-25", "2013-11-26", 43, 197], [300, "CDISCPILOT01", "SE", "01-706-1384", 1, "SCRN", "Screen", "", "SCREENING", "2012-08-25", "2012-09-15", -21, 1], [301, "CDISCPILOT01", "SE", "01-706-1384", 4, "LO", "Low", "", "TREATMENT", "2012-09-15", "2012-09-29", 1, 15], [302, "CDISCPILOT01", "SE", "01-706-1384", 6, "FOLO", "Follow_up", "", "FOLLOW-UP", "2012-09-29", "2013-06-22", 15, 281], [303, "CDISCPILOT01", "SE", "01-707-1037", 1, "SCRN", "Screen", "", "SCREENING", "2013-12-12", "2013-12-20", -8, 1], [304, "CDISCPILOT01", "SE", "01-707-1037", 4, "LO", "Low", "", "TREATMENT", "2013-12-20", "2014-01-08", 1, 20], [305, "CDISCPILOT01", "SE", "01-707-1206", 1, "SCRN", "Screen", "", "SCREENING", "2013-10-20", "2013-10-28", -8, 1], [306, "CDISCPILOT01", "SE", "01-707-1206", 4, "PBO", "Placebo", "", "TREATMENT", "2013-10-28", "2014-04-27", 1, 182], [307, "CDISCPILOT01", "SE", "01-707-1276", 1, "SCRN", "Screen", "", "SCREENING", "2012-10-12", "2012-10-29", null, null], [308, "CDISCPILOT01", "SE", "01-707-1430", 1, "SCRN", "Screen", "", "SCREENING", "2014-02-14", "2014-02-15", null, null], [309, "CDISCPILOT01", "SE", "01-707-1434", 1, "SCRN", "Screen", "", "SCREENING", "2013-07-25", "2013-07-29", null, null], [310, "CDISCPILOT01", "SE", "01-708-1013", 1, "SCRN", "Screen", "", "SCREENING", "2012-10-13", "2012-11-09", null, null], [311, "CDISCPILOT01", "SE", "01-708-1019", 1, "SCRN", "Screen", "", "SCREENING", "2013-12-10", "2013-12-20", -10, 1], [312, "CDISCPILOT01", "SE", "01-708-1019", 4, "LO", "Low", "", "TREATMENT", "2013-12-20", "2014-01-23", 1, 35], [313, "CDISCPILOT01", "SE", "01-708-1032", 1, "SCRN", "Screen", "", "SCREENING", "2013-02-02", "2013-02-09", -7, 1], [314, "CDISCPILOT01", "SE", "01-708-1032", 4, "LO", "Low", "", "TREATMENT", "2013-02-09", "2013-03-09", 1, 29], [315, "CDISCPILOT01", "SE", "01-708-1054", 1, "SCRN", "Screen", "", "SCREENING", "2014-02-14", "2014-03-05", null, null], [316, "CDISCPILOT01", "SE", "01-708-1067", 1, "SCRN", "Screen", "", "SCREENING", "2013-02-07", "2013-03-07", null, null], [317, "CDISCPILOT01", "SE", "01-708-1067", 2, "UNPLAN", "", "Unknown reason for Visit 4", "TREATMENT", "2013-03-07", "2013-03-07", null, null], [318, "CDISCPILOT01", "SE", "01-708-1084", 1, "SCRN", "Screen", "", "SCREENING", "2013-05-01", "2013-05-09", -8, 1], [319, "CDISCPILOT01", "SE", "01-708-1084", 4, "LO", "Low", "", "TREATMENT", "2013-05-09", "2013-11-11", 1, 187], [320, "CDISCPILOT01", "SE", "01-708-1087", 1, "SCRN", "Screen", "", "SCREENING", "2012-10-06", "2012-10-22", -16, 1], [321, "CDISCPILOT01", "SE", "01-708-1087", 4, "PBO", "Placebo", "", "TREATMENT", "2012-10-22", "2013-04-28", 1, 189], [322, "CDISCPILOT01", "SE", "01-708-1104", 1, "SCRN", "Screen", "", "SCREENING", "2014-01-23", "2014-01-23", null, null], [323, "CDISCPILOT01", "SE", "01-708-1158", 1, "SCRN", "Screen", "", "SCREENING", "2014-02-01", "2014-02-08", -7, 1], [324, "CDISCPILOT01", "SE", "01-708-1158", 4, "PBO", "Placebo", "", "TREATMENT", "2014-02-08", "2014-03-22", 1, 43], [325, "CDISCPILOT01", "SE", "01-708-1171", 1, "SCRN", "Screen", "", "SCREENING", "2012-11-25", "2012-12-06", -11, 1], [326, "CDISCPILOT01", "SE", "01-708-1171", 4, "PBO", "Placebo", "", "TREATMENT", "2012-12-06", "2013-06-04", 1, 181], [327, "CDISCPILOT01", "SE", "01-708-1178", 1, "SCRN", "Screen", "", "SCREENING", "2013-12-13", "2013-12-29", -16, 1], [328, "CDISCPILOT01", "SE", "01-708-1178", 3, "HIS", "High_Start", "", "TREATMENT", "2013-12-29", "2014-01-18", 1, 21], [329, "CDISCPILOT01", "SE", "01-708-1178", 4, "HIM", "High_Middle", "", "TREATMENT", "2014-01-18", "2014-04-06", 21, 99], [330, "CDISCPILOT01", "SE", "01-708-1184", 1, "SCRN", "Screen", "", "SCREENING", "2013-01-14", "2013-02-03", null, null], [331, "CDISCPILOT01", "SE", "01-708-1213", 1, "SCRN", "Screen", "", "SCREENING", "2013-02-01", "2013-02-09", -8, 1], [332, "CDISCPILOT01", "SE", "01-708-1213", 3, "HIS", "High_Start", "", "TREATMENT", "2013-02-09", "2013-02-22", 1, 14], [333, "CDISCPILOT01", "SE", "01-708-1213", 4, "HIM", "High_Middle", "", "TREATMENT", "2013-02-22", "2013-02-26", 14, 18], [334, "CDISCPILOT01", "SE", "01-708-1216", 1, "SCRN", "Screen", "", "SCREENING", "2012-10-14", "2012-10-24", -10, 1], [335, "CDISCPILOT01", "SE", "01-708-1216", 3, "HIS", "High_Start", "", "TREATMENT", "2012-10-24", "2012-11-08", 1, 16], [336, "CDISCPILOT01", "SE", "01-708-1216", 4, "HIM", "High_Middle", "", "TREATMENT", "2012-11-08", "2012-12-06", 16, 44], [337, "CDISCPILOT01", "SE", "01-708-1216", 6, "FOLO", "Follow_up", "", "FOLLOW-UP", "2012-12-06", "2013-01-09", 44, 78], [338, "CDISCPILOT01", "SE", "01-708-1236", 1, "SCRN", "Screen", "", "SCREENING", "2013-09-08", "2013-09-21", -13, 1], [339, "CDISCPILOT01", "SE", "01-708-1236", 3, "HIS", "High_Start", "", "TREATMENT", "2013-09-21", "2013-09-26", 1, 6], [340, "CDISCPILOT01", "SE", "01-708-1242", 1, "SCRN", "Screen", "", "SCREENING", "2012-08-13", "2012-08-13", null, null], [341, "CDISCPILOT01", "SE", "01-708-1253", 1, "SCRN", "Screen", "", "SCREENING", "2013-04-26", "2013-05-07", -11, 1], [342, "CDISCPILOT01", "SE", "01-708-1253", 4, "PBO", "Placebo", "", "TREATMENT", "2013-05-07", "2013-11-05", 1, 183], [343, "CDISCPILOT01", "SE", "01-708-1272", 1, "SCRN", "Screen", "", "SCREENING", "2013-01-22", "2013-02-06", -15, 1], [344, "CDISCPILOT01", "SE", "01-708-1272", 4, "LO", "Low", "", "TREATMENT", "2013-02-06", "2013-04-04", 1, 58], [345, "CDISCPILOT01", "SE", "01-708-1286", 1, "SCRN", "Screen", "", "SCREENING", "2013-08-25", "2013-09-10", -16, 1], [346, "CDISCPILOT01", "SE", "01-708-1286", 4, "PBO", "Placebo", "", "TREATMENT", "2013-09-10", "2014-03-08", 1, 180], [347, "CDISCPILOT01", "SE", "01-708-1296", 1, "SCRN", "Screen", "", "SCREENING", "2013-06-07", "2013-06-14", -7, 1], [348, "CDISCPILOT01", "SE", "01-708-1296", 4, "PBO", "Placebo", "", "TREATMENT", "2013-06-14", "2013-12-12", 1, 182], [349, "CDISCPILOT01", "SE", "01-708-1297", 1, "SCRN", "Screen", "", "SCREENING", "2013-01-15", "2013-01-25", -10, 1], [350, "CDISCPILOT01", "SE", "01-708-1297", 4, "LO", "Low", "", "TREATMENT", "2013-01-25", "2013-05-08", 1, 104], [351, "CDISCPILOT01", "SE", "01-708-1297", 6, "FOLO", "Follow_up", "", "FOLLOW-UP", "2013-05-08", "2013-06-07", 104, 134], [352, "CDISCPILOT01", "SE", "01-708-1316", 1, "SCRN", "Screen", "", "SCREENING", "2013-08-15", "2013-08-23", -8, 1], [353, "CDISCPILOT01", "SE", "01-708-1316", 4, "PBO", "Placebo", "", "TREATMENT", "2013-08-23", "2014-03-01", 1, 191], [354, "CDISCPILOT01", "SE", "01-708-1336", 1, "SCRN", "Screen", "", "SCREENING", "2012-11-21", "2012-12-07", -16, 1], [355, "CDISCPILOT01", "SE", "01-708-1336", 3, "HIS", "High_Start", "", "TREATMENT", "2012-12-07", "2012-12-21", 1, 15], [356, "CDISCPILOT01", "SE", "01-708-1336", 4, "HIM", "High_Middle", "", "TREATMENT", "2012-12-21", "2013-05-22", 15, 167], [357, "CDISCPILOT01", "SE", "01-708-1336", 5, "HIE", "High_End", "", "TREATMENT", "2013-05-22", "2013-06-05", 167, 181], [358, "CDISCPILOT01", "SE", "01-708-1336", 6, "FOLO", "Follow_up", "", "FOLLOW-UP", "2013-06-05", "2013-07-05", 181, 211], [359, "CDISCPILOT01", "SE", "01-708-1342", 1, "SCRN", "Screen", "", "SCREENING", "2012-12-21", "2012-12-29", -8, 1], [360, "CDISCPILOT01", "SE", "01-708-1342", 4, "PBO", "Placebo", "", "TREATMENT", "2012-12-29", "2013-06-28", 1, 182], [361, "CDISCPILOT01", "SE", "01-708-1347", 1, "SCRN", "Screen", "", "SCREENING", "2013-04-11", "2013-04-20", -9, 1], [362, "CDISCPILOT01", "SE", "01-708-1347", 3, "HIS", "High_Start", "", "TREATMENT", "2013-04-20", "2013-05-04", 1, 15], [363, "CDISCPILOT01", "SE", "01-708-1347", 4, "HIM", "High_Middle", "", "TREATMENT", "2013-05-04", "2013-06-18", 15, 60], [364, "CDISCPILOT01", "SE", "01-708-1347", 6, "FOLO", "Follow_up", "", "FOLLOW-UP", "2013-06-18", "2013-08-02", 60, 105], [365, "CDISCPILOT01", "SE", "01-708-1348", 1, "SCRN", "Screen", "", "SCREENING", "2013-07-28", "2013-08-05", -8, 1], [366, "CDISCPILOT01", "SE", "01-708-1348", 4, "LO", "Low", "", "TREATMENT", "2013-08-05", "2014-02-13", 1, 193], [367, "CDISCPILOT01", "SE", "01-708-1352", 1, "SCRN", "Screen", "", "SCREENING", "2013-09-16", "2013-09-29", null, null], [368, "CDISCPILOT01", "SE", "01-708-1353", 1, "SCRN", "Screen", "", "SCREENING", "2013-06-17", "2013-07-04", -17, 1], [369, "CDISCPILOT01", "SE", "01-708-1353", 4, "LO", "Low", "", "TREATMENT", "2013-07-04", "2013-09-10", 1, 69], [370, "CDISCPILOT01", "SE", "01-708-1372", 1, "SCRN", "Screen", "", "SCREENING", "2013-04-03", "2013-04-12", -9, 1], [371, "CDISCPILOT01", "SE", "01-708-1372", 3, "HIS", "High_Start", "", "TREATMENT", "2013-04-12", "2013-05-10", 1, 29], [372, "CDISCPILOT01", "SE", "01-708-1378", 1, "SCRN", "Screen", "", "SCREENING", "2013-08-24", "2013-09-03", -10, 1], [373, "CDISCPILOT01", "SE", "01-708-1378", 4, "PBO", "Placebo", "", "TREATMENT", "2013-09-03", "2014-01-28", 1, 148], [374, "CDISCPILOT01", "SE", "01-708-1406", 1, "SCRN", "Screen", "", "SCREENING", "2013-12-06", "2013-12-26", -20, 1], [375, "CDISCPILOT01", "SE", "01-708-1406", 3, "HIS", "High_Start", "", "TREATMENT", "2013-12-26", "2014-01-09", 1, 15], [376, "CDISCPILOT01", "SE", "01-708-1406", 4, "HIM", "High_Middle", "", "TREATMENT", "2014-01-09", "2014-06-16", 15, 173], [377, "CDISCPILOT01", "SE", "01-708-1406", 5, "HIE", "High_End", "", "TREATMENT", "2014-06-16", "2014-07-02", 173, 189], [378, "CDISCPILOT01", "SE", "01-708-1428", 1, "SCRN", "Screen", "", "SCREENING", "2013-11-02", "2013-11-09", -7, 1], [379, "CDISCPILOT01", "SE", "01-708-1428", 4, "LO", "Low", "", "TREATMENT", "2013-11-09", "2014-01-31", 1, 84], [380, "CDISCPILOT01", "SE", "01-708-1428", 6, "FOLO", "Follow_up", "", "FOLLOW-UP", "2014-01-31", "2014-01-31", 84, 84], [381, "CDISCPILOT01", "SE", "01-709-1001", 1, "SCRN", "Screen", "", "SCREENING", "2013-09-20", "2013-10-08", -18, 1], [382, "CDISCPILOT01", "SE", "01-709-1001", 4, "PBO", "Placebo", "", "TREATMENT", "2013-10-08", "2014-04-08", 1, 183], [383, "CDISCPILOT01", "SE", "01-709-1007", 1, "SCRN", "Screen", "", "SCREENING", "2012-07-21", "2012-07-31", -10, 1], [384, "CDISCPILOT01", "SE", "01-709-1007", 4, "LO", "Low", "", "TREATMENT", "2012-07-31", "2012-09-01", 1, 33], [385, "CDISCPILOT01", "SE", "01-709-1007", 6, "FOLO", "Follow_up", "", "FOLLOW-UP", "2012-09-01", "2012-09-07", 33, 39], [386, "CDISCPILOT01", "SE", "01-709-1020", 1, "SCRN", "Screen", "", "SCREENING", "2012-11-22", "2012-12-01", -9, 1], [387, "CDISCPILOT01", "SE", "01-709-1020", 4, "LO", "Low", "", "TREATMENT", "2012-12-01", "2013-06-01", 1, 183], [388, "CDISCPILOT01", "SE", "01-709-1029", 1, "SCRN", "Screen", "", "SCREENING", "2012-12-10", "2012-12-25", -15, 1], [389, "CDISCPILOT01", "SE", "01-709-1029", 3, "HIS", "High_Start", "", "TREATMENT", "2012-12-25", "2013-01-09", 1, 16], [390, "CDISCPILOT01", "SE", "01-709-1029", 4, "HIM", "High_Middle", "", "TREATMENT", "2013-01-09", "2013-06-12", 16, 170], [391, "CDISCPILOT01", "SE", "01-709-1029", 5, "HIE", "High_End", "", "TREATMENT", "2013-06-12", "2013-06-26", 170, 184], [392, "CDISCPILOT01", "SE", "01-709-1081", 1, "SCRN", "Screen", "", "SCREENING", "2014-01-09", "2014-01-18", -9, 1], [393, "CDISCPILOT01", "SE", "01-709-1081", 4, "LO", "Low", "", "TREATMENT", "2014-01-18", "2014-05-10", 1, 113], [394, "CDISCPILOT01", "SE", "01-709-1088", 1, "SCRN", "Screen", "", "SCREENING", "2014-03-30", "2014-04-12", -13, 1], [395, "CDISCPILOT01", "SE", "01-709-1088", 4, "PBO", "Placebo", "", "TREATMENT", "2014-04-12", "2014-10-09", 1, 181], [396, "CDISCPILOT01", "SE", "01-709-1099", 1, "SCRN", "Screen", "", "SCREENING", "2013-10-14", "2013-10-25", -11, 1], [397, "CDISCPILOT01", "SE", "01-709-1099", 3, "HIS", "High_Start", "", "TREATMENT", "2013-10-25", "2013-11-12", 1, 19], [398, "CDISCPILOT01", "SE", "01-709-1099", 4, "HIM", "High_Middle", "", "TREATMENT", "2013-11-12", "2014-04-11", 19, 169], [399, "CDISCPILOT01", "SE", "01-709-1099", 5, "HIE", "High_End", "", "TREATMENT", "2014-04-11", "2014-04-25", 169, 183], [400, "CDISCPILOT01", "SE", "01-709-1102", 1, "SCRN", "Screen", "", "SCREENING", "2013-01-07", "2013-01-15", -8, 1], [401, "CDISCPILOT01", "SE", "01-709-1102", 4, "LO", "Low", "", "TREATMENT", "2013-01-15", "2013-03-31", 1, 76], [402, "CDISCPILOT01", "SE", "01-709-1102", 6, "FOLO", "Follow_up", "", "FOLLOW-UP", "2013-03-31", "2013-05-12", 76, 118], [403, "CDISCPILOT01", "SE", "01-709-1168", 1, "SCRN", "Screen", "", "SCREENING", "2013-07-25", "2013-08-02", -8, 1], [404, "CDISCPILOT01", "SE", "01-709-1168", 3, "HIS", "High_Start", "", "TREATMENT", "2013-08-02", "2013-08-17", 1, 16], [405, "CDISCPILOT01", "SE", "01-709-1168", 4, "HIM", "High_Middle", "", "TREATMENT", "2013-08-17", "2013-09-27", 16, 57], [406, "CDISCPILOT01", "SE", "01-709-1168", 6, "FOLO", "Follow_up", "", "FOLLOW-UP", "2013-09-27", "2013-11-01", 57, 92], [407, "CDISCPILOT01", "SE", "01-709-1217", 1, "SCRN", "Screen", "", "SCREENING", "2013-02-16", "2013-03-04", -16, 1], [408, "CDISCPILOT01", "SE", "01-709-1217", 4, "LO", "Low", "", "TREATMENT", "2013-03-04", "2013-06-25", 1, 114], [409, "CDISCPILOT01", "SE", "01-709-1224", 1, "SCRN", "Screen", "", "SCREENING", "2013-11-18", "2013-11-24", null, null], [410, "CDISCPILOT01", "SE", "01-709-1237", 1, "SCRN", "Screen", "", "SCREENING", "2014-01-17", "2014-03-04", null, null], [411, "CDISCPILOT01", "SE", "01-709-1238", 1, "SCRN", "Screen", "", "SCREENING", "2013-05-02", "2013-05-15", -13, 1], [412, "CDISCPILOT01", "SE", "01-709-1238", 3, "HIS", "High_Start", "", "TREATMENT", "2013-05-15", "2013-05-29", 1, 15], [413, "CDISCPILOT01", "SE", "01-709-1238", 4, "HIM", "High_Middle", "", "TREATMENT", "2013-05-29", "2013-08-07", 15, 85], [414, "CDISCPILOT01", "SE", "01-709-1238", 6, "FOLO", "Follow_up", "", "FOLLOW-UP", "2013-08-07", "2013-08-13", 85, 91], [415, "CDISCPILOT01", "SE", "01-709-1259", 1, "SCRN", "Screen", "", "SCREENING", "2013-01-13", "2013-01-26", -13, 1], [416, "CDISCPILOT01", "SE", "01-709-1259", 4, "PBO", "Placebo", "", "TREATMENT", "2013-01-26", "2013-06-13", 1, 139], [417, "CDISCPILOT01", "SE", "01-709-1285", 1, "SCRN", "Screen", "", "SCREENING", "2013-03-17", "2013-03-24", -7, 1], [418, "CDISCPILOT01", "SE", "01-709-1285", 4, "LO", "Low", "", "TREATMENT", "2013-03-24", "2013-05-31", 1, 69], [419, "CDISCPILOT01", "SE", "01-709-1301", 1, "SCRN", "Screen", "", "SCREENING", "2013-07-14", "2013-07-19", -5, 1], [420, "CDISCPILOT01", "SE", "01-709-1301", 4, "PBO", "Placebo", "", "TREATMENT", "2013-07-19", "2014-01-17", 1, 183], [421, "CDISCPILOT01", "SE", "01-709-1306", 1, "SCRN", "Screen", "", "SCREENING", "2014-01-19", "2014-02-03", -15, 1], [422, "CDISCPILOT01", "SE", "01-709-1306", 4, "PBO", "Placebo", "", "TREATMENT", "2014-02-03", "2014-06-25", 1, 143], [423, "CDISCPILOT01", "SE", "01-709-1309", 1, "SCRN", "Screen", "", "SCREENING", "2013-06-09", "2013-06-19", -10, 1], [424, "CDISCPILOT01", "SE", "01-709-1309", 3, "HIS", "High_Start", "", "TREATMENT", "2013-06-19", "2013-07-01", 1, 13], [425, "CDISCPILOT01", "SE", "01-709-1309", 4, "HIM", "High_Middle", "", "TREATMENT", "2013-07-01", "2013-12-05", 13, 170], [426, "CDISCPILOT01", "SE", "01-709-1309", 5, "HIE", "High_End", "", "TREATMENT", "2013-12-05", "2013-12-19", 170, 184], [427, "CDISCPILOT01", "SE", "01-709-1312", 1, "SCRN", "Screen", "", "SCREENING", "2014-04-13", "2014-04-20", -7, 1], [428, "CDISCPILOT01", "SE", "01-709-1312", 4, "PBO", "Placebo", "", "TREATMENT", "2014-04-20", "2014-10-19", 1, 183], [429, "CDISCPILOT01", "SE", "01-709-1326", 1, "SCRN", "Screen", "", "SCREENING", "2013-03-21", "2013-04-05", -15, 1], [430, "CDISCPILOT01", "SE", "01-709-1326", 4, "LO", "Low", "", "TREATMENT", "2013-04-05", "2013-10-02", 1, 181], [431, "CDISCPILOT01", "SE", "01-709-1329", 1, "SCRN", "Screen", "", "SCREENING", "2013-08-01", "2013-08-15", -14, 1], [432, "CDISCPILOT01", "SE", "01-709-1329", 3, "HIS", "High_Start", "", "TREATMENT", "2013-08-15", "2013-08-29", 1, 15], [433, "CDISCPILOT01", "SE", "01-709-1339", 1, "SCRN", "Screen", "", "SCREENING", "2012-12-15", "2012-12-23", -8, 1], [434, "CDISCPILOT01", "SE", "01-709-1339", 4, "PBO", "Placebo", "", "TREATMENT", "2012-12-23", "2013-06-24", 1, 184], [435, "CDISCPILOT01", "SE", "01-709-1424", 1, "SCRN", "Screen", "", "SCREENING", "2013-02-15", "2013-03-03", -16, 1], [436, "CDISCPILOT01", "SE", "01-709-1424", 3, "HIS", "High_Start", "", "TREATMENT", "2013-03-03", "2013-03-17", 1, 15], [437, "CDISCPILOT01", "SE", "01-709-1424", 4, "HIM", "High_Middle", "", "TREATMENT", "2013-03-17", "2013-03-17", 15, 15], [438, "CDISCPILOT01", "SE", "01-709-1424", 6, "FOLO", "Follow_up", "", "FOLLOW-UP", "2013-03-17", "2013-03-17", 15, 15], [439, "CDISCPILOT01", "SE", "01-710-1002", 1, "SCRN", "Screen", "", "SCREENING", "2013-12-30", "2014-01-14", -15, 1], [440, "CDISCPILOT01", "SE", "01-710-1002", 4, "LO", "Low", "", "TREATMENT", "2014-01-14", "2014-01-18", 1, 5], [441, "CDISCPILOT01", "SE", "01-710-1002", 6, "FOLO", "Follow_up", "", "FOLLOW-UP", "2014-01-18", "2014-01-20", 5, 7], [442, "CDISCPILOT01", "SE", "01-710-1006", 1, "SCRN", "Screen", "", "SCREENING", "2013-01-27", "2013-02-10", -14, 1], [443, "CDISCPILOT01", "SE", "01-710-1006", 3, "HIS", "High_Start", "", "TREATMENT", "2013-02-10", "2013-02-22", 1, 13], [444, "CDISCPILOT01", "SE", "01-710-1006", 4, "HIM", "High_Middle", "", "TREATMENT", "2013-02-22", "2013-07-27", 13, 168], [445, "CDISCPILOT01", "SE", "01-710-1006", 5, "HIE", "High_End", "", "TREATMENT", "2013-07-27", "2013-08-10", 168, 182], [446, "CDISCPILOT01", "SE", "01-710-1021", 1, "SCRN", "Screen", "", "SCREENING", "2013-09-19", "2013-09-27", -8, 1], [447, "CDISCPILOT01", "SE", "01-710-1021", 3, "HIS", "High_Start", "", "TREATMENT", "2013-09-27", "2013-10-11", 1, 15], [448, "CDISCPILOT01", "SE", "01-710-1021", 4, "HIM", "High_Middle", "", "TREATMENT", "2013-10-11", "2013-11-12", 15, 47], [449, "CDISCPILOT01", "SE", "01-710-1021", 6, "FOLO", "Follow_up", "", "FOLLOW-UP", "2013-11-12", "2013-11-22", 47, 57], [450, "CDISCPILOT01", "SE", "01-710-1027", 1, "SCRN", "Screen", "", "SCREENING", "2014-02-03", "2014-02-28", -25, 1], [451, "CDISCPILOT01", "SE", "01-710-1027", 4, "PBO", "Placebo", "", "TREATMENT", "2014-02-28", "2014-08-29", 1, 183], [452, "CDISCPILOT01", "SE", "01-710-1045", 1, "SCRN", "Screen", "", "SCREENING", "2013-05-20", "2013-06-03", -14, 1], [453, "CDISCPILOT01", "SE", "01-710-1045", 4, "LO", "Low", "", "TREATMENT", "2013-06-03", "2013-08-17", 1, 76], [454, "CDISCPILOT01", "SE", "01-710-1045", 6, "FOLO", "Follow_up", "", "FOLLOW-UP", "2013-08-17", "2013-09-08", 76, 98], [455, "CDISCPILOT01", "SE", "01-710-1053", 1, "SCRN", "Screen", "", "SCREENING", "2012-12-15", "2012-12-26", -11, 1], [456, "CDISCPILOT01", "SE", "01-710-1053", 4, "LO", "Low", "", "TREATMENT", "2012-12-26", "2013-02-26", 1, 63], [457, "CDISCPILOT01", "SE", "01-710-1053", 6, "FOLO", "Follow_up", "", "FOLLOW-UP", "2013-02-26", "2013-02-26", 63, 63], [458, "CDISCPILOT01", "SE", "01-710-1060", 1, "SCRN", "Screen", "", "SCREENING", "2012-12-24", "2013-01-01", -8, 1], [459, "CDISCPILOT01", "SE", "01-710-1060", 4, "PBO", "Placebo", "", "TREATMENT", "2013-01-01", "2013-07-05", 1, 186], [460, "CDISCPILOT01", "SE", "01-710-1070", 1, "SCRN", "Screen", "", "SCREENING", "2012-08-28", "2012-09-08", -11, 1], [461, "CDISCPILOT01", "SE", "01-710-1070", 3, "HIS", "High_Start", "", "TREATMENT", "2012-09-08", "2012-09-22", 1, 15], [462, "CDISCPILOT01", "SE", "01-710-1070", 4, "HIM", "High_Middle", "", "TREATMENT", "2012-09-22", "2013-02-23", 15, 169], [463, "CDISCPILOT01", "SE", "01-710-1070", 6, "FOLO", "Follow_up", "", "FOLLOW-UP", "2013-02-23", "2013-07-04", 169, 300], [464, "CDISCPILOT01", "SE", "01-710-1077", 1, "SCRN", "Screen", "", "SCREENING", "2013-11-03", "2013-11-17", -14, 1], [465, "CDISCPILOT01", "SE", "01-710-1077", 4, "PBO", "Placebo", "", "TREATMENT", "2013-11-17", "2014-05-18", 1, 183], [466, "CDISCPILOT01", "SE", "01-710-1078", 1, "SCRN", "Screen", "", "SCREENING", "2013-09-06", "2013-09-17", -11, 1], [467, "CDISCPILOT01", "SE", "01-710-1078", 4, "PBO", "Placebo", "", "TREATMENT", "2013-09-17", "2014-03-23", 1, 188], [468, "CDISCPILOT01", "SE", "01-710-1083", 1, "SCRN", "Screen", "", "SCREENING", "2013-07-09", "2013-07-22", -13, 1], [469, "CDISCPILOT01", "SE", "01-710-1083", 4, "PBO", "Placebo", "", "TREATMENT", "2013-07-22", "2013-08-03", 1, 13], [470, "CDISCPILOT01", "SE", "01-710-1129", 1, "SCRN", "Screen", "", "SCREENING", "2013-03-05", "2013-03-17", null, null], [471, "CDISCPILOT01", "SE", "01-710-1137", 1, "SCRN", "Screen", "", "SCREENING", "2013-10-03", "2013-10-11", -8, 1], [472, "CDISCPILOT01", "SE", "01-710-1137", 3, "HIS", "High_Start", "", "TREATMENT", "2013-10-11", "2013-10-25", 1, 15], [473, "CDISCPILOT01", "SE", "01-710-1137", 4, "HIM", "High_Middle", "", "TREATMENT", "2013-10-25", "2013-11-13", 15, 34], [474, "CDISCPILOT01", "SE", "01-710-1137", 6, "FOLO", "Follow_up", "", "FOLLOW-UP", "2013-11-13", "2013-11-25", 34, 46], [475, "CDISCPILOT01", "SE", "01-710-1142", 1, "SCRN", "Screen", "", "SCREENING", "2012-09-12", "2012-10-02", -20, 1], [476, "CDISCPILOT01", "SE", "01-710-1142", 3, "HIS", "High_Start", "", "TREATMENT", "2012-10-02", "2012-10-16", 1, 15], [477, "CDISCPILOT01", "SE", "01-710-1142", 4, "HIM", "High_Middle", "", "TREATMENT", "2012-10-16", "2012-10-23", 15, 22], [478, "CDISCPILOT01", "SE", "01-710-1142", 6, "FOLO", "Follow_up", "", "FOLLOW-UP", "2012-10-23", "2012-10-28", 22, 27], [479, "CDISCPILOT01", "SE", "01-710-1149", 1, "SCRN", "Screen", "", "SCREENING", "2013-11-16", "2013-12-01", null, null], [480, "CDISCPILOT01", "SE", "01-710-1154", 1, "SCRN", "Screen", "", "SCREENING", "2014-03-08", "2014-03-29", -21, 1], [481, "CDISCPILOT01", "SE", "01-710-1154", 4, "LO", "Low", "", "TREATMENT", "2014-03-29", "2014-05-09", 1, 42], [482, "CDISCPILOT01", "SE", "01-710-1154", 6, "FOLO", "Follow_up", "", "FOLLOW-UP", "2014-05-09", "2014-06-13", 42, 77], [483, "CDISCPILOT01", "SE", "01-710-1166", 1, "SCRN", "Screen", "", "SCREENING", "2012-11-10", "2012-11-30", -20, 1], [484, "CDISCPILOT01", "SE", "01-710-1166", 4, "LO", "Low", "", "TREATMENT", "2012-11-30", "2013-03-30", 1, 121], [485, "CDISCPILOT01", "SE", "01-710-1166", 6, "FOLO", "Follow_up", "", "FOLLOW-UP", "2013-03-30", "2013-05-22", 121, 174], [486, "CDISCPILOT01", "SE", "01-710-1183", 1, "SCRN", "Screen", "", "SCREENING", "2013-10-24", "2013-11-16", -23, 1], [487, "CDISCPILOT01", "SE", "01-710-1183", 4, "PBO", "Placebo", "", "TREATMENT", "2013-11-16", "2014-05-17", 1, 183], [488, "CDISCPILOT01", "SE", "01-710-1187", 1, "SCRN", "Screen", "", "SCREENING", "2012-10-26", "2012-11-10", -15, 1], [489, "CDISCPILOT01", "SE", "01-710-1187", 3, "HIS", "High_Start", "", "TREATMENT", "2012-11-10", "2012-11-24", 1, 15], [490, "CDISCPILOT01", "SE", "01-710-1187", 4, "HIM", "High_Middle", "", "TREATMENT", "2012-11-24", "2013-04-28", 15, 170], [491, "CDISCPILOT01", "SE", "01-710-1187", 5, "HIE", "High_End", "", "TREATMENT", "2013-04-28", "2013-05-12", 170, 184], [492, "CDISCPILOT01", "SE", "01-710-1235", 1, "SCRN", "Screen", "", "SCREENING", "2012-09-13", "2012-09-26", -13, 1], [493, "CDISCPILOT01", "SE", "01-710-1235", 4, "LO", "Low", "", "TREATMENT", "2012-09-26", "2013-03-27", 1, 183], [494, "CDISCPILOT01", "SE", "01-710-1249", 1, "SCRN", "Screen", "", "SCREENING", "2013-12-19", "2013-12-28", -9, 1], [495, "CDISCPILOT01", "SE", "01-710-1249", 3, "HIS", "High_Start", "", "TREATMENT", "2013-12-28", "2014-01-11", 1, 15], [496, "CDISCPILOT01", "SE", "01-710-1249", 4, "HIM", "High_Middle", "", "TREATMENT", "2014-01-11", "2014-06-14", 15, 169], [497, "CDISCPILOT01", "SE", "01-710-1249", 5, "HIE", "High_End", "", "TREATMENT", "2014-06-14", "2014-06-28", 169, 183], [498, "CDISCPILOT01", "SE", "01-710-1257", 1, "SCRN", "Screen", "", "SCREENING", "2013-11-29", "2013-12-11", null, null], [499, "CDISCPILOT01", "SE", "01-710-1264", 1, "SCRN", "Screen", "", "SCREENING", "2013-06-02", "2013-06-13", -11, 1], [500, "CDISCPILOT01", "SE", "01-710-1264", 4, "PBO", "Placebo", "", "TREATMENT", "2013-06-13", "2013-10-12", 1, 122], [501, "CDISCPILOT01", "SE", "01-710-1264", 6, "FOLO", "Follow_up", "", "FOLLOW-UP", "2013-10-12", "2013-11-05", 122, 146], [502, "CDISCPILOT01", "SE", "01-710-1270", 1, "SCRN", "Screen", "", "SCREENING", "2014-02-01", "2014-02-12", -11, 1], [503, "CDISCPILOT01", "SE", "01-710-1270", 4, "LO", "Low", "", "TREATMENT", "2014-02-12", "2014-03-01", 1, 18], [504, "CDISCPILOT01", "SE", "01-710-1270", 6, "FOLO", "Follow_up", "", "FOLLOW-UP", "2014-03-01", "2014-03-26", 18, 43], [505, "CDISCPILOT01", "SE", "01-710-1271", 1, "SCRN", "Screen", "", "SCREENING", "2012-09-04", "2012-09-27", -23, 1], [506, "CDISCPILOT01", "SE", "01-710-1271", 4, "PBO", "Placebo", "", "TREATMENT", "2012-09-27", "2012-12-02", 1, 67], [507, "CDISCPILOT01", "SE", "01-710-1271", 6, "FOLO", "Follow_up", "", "FOLLOW-UP", "2012-12-02", "2012-12-09", 67, 74], [508, "CDISCPILOT01", "SE", "01-710-1278", 1, "SCRN", "Screen", "", "SCREENING", "2012-12-13", "2012-12-24", -11, 1], [509, "CDISCPILOT01", "SE", "01-710-1278", 3, "HIS", "High_Start", "", "TREATMENT", "2012-12-24", "2013-01-07", 1, 15], [510, "CDISCPILOT01", "SE", "01-710-1278", 4, "HIM", "High_Middle", "", "TREATMENT", "2013-01-07", "2013-03-03", 15, 70], [511, "CDISCPILOT01", "SE", "01-710-1278", 6, "FOLO", "Follow_up", "", "FOLLOW-UP", "2013-03-03", "2013-03-10", 70, 77], [512, "CDISCPILOT01", "SE", "01-710-1300", 1, "SCRN", "Screen", "", "SCREENING", "2012-12-04", "2012-12-15", -11, 1], [513, "CDISCPILOT01", "SE", "01-710-1300", 4, "LO", "Low", "", "TREATMENT", "2012-12-15", "2013-02-19", 1, 67], [514, "CDISCPILOT01", "SE", "01-710-1300", 6, "FOLO", "Follow_up", "", "FOLLOW-UP", "2013-02-19", "2013-03-19", 67, 95], [515, "CDISCPILOT01", "SE", "01-710-1314", 1, "SCRN", "Screen", "", "SCREENING", "2013-04-21", "2013-04-24", -3, 1], [516, "CDISCPILOT01", "SE", "01-710-1314", 4, "PBO", "Placebo", "", "TREATMENT", "2013-04-24", "2013-05-25", 1, 32], [517, "CDISCPILOT01", "SE", "01-710-1315", 1, "SCRN", "Screen", "", "SCREENING", "2013-02-12", "2013-02-27", -15, 1], [518, "CDISCPILOT01", "SE", "01-710-1315", 4, "PBO", "Placebo", "", "TREATMENT", "2013-02-27", "2013-07-16", 1, 140], [519, "CDISCPILOT01", "SE", "01-710-1315", 6, "FOLO", "Follow_up", "", "FOLLOW-UP", "2013-07-16", "2013-09-02", 140, 188], [520, "CDISCPILOT01", "SE", "01-710-1337", 1, "SCRN", "Screen", "", "SCREENING", "2013-12-30", "2014-01-26", null, null], [521, "CDISCPILOT01", "SE", "01-710-1337", 2, "UNPLAN", "", "Unknown reason for Visit 4", "TREATMENT", "2014-01-26", "2014-01-26", null, null], [522, "CDISCPILOT01", "SE", "01-710-1354", 1, "SCRN", "Screen", "", "SCREENING", "2012-10-29", "2012-11-11", -13, 1], [523, "CDISCPILOT01", "SE", "01-710-1354", 3, "HIS", "High_Start", "", "TREATMENT", "2012-11-11", "2012-11-25", 1, 15], [524, "CDISCPILOT01", "SE", "01-710-1354", 4, "HIM", "High_Middle", "", "TREATMENT", "2012-11-25", "2013-04-21", 15, 162], [525, "CDISCPILOT01", "SE", "01-710-1354", 5, "HIE", "High_End", "", "TREATMENT", "2013-04-21", "2013-05-01", 162, 172], [526, "CDISCPILOT01", "SE", "01-710-1358", 1, "SCRN", "Screen", "", "SCREENING", "2012-09-02", "2012-09-17", -15, 1], [527, "CDISCPILOT01", "SE", "01-710-1358", 4, "LO", "Low", "", "TREATMENT", "2012-09-17", "2013-03-12", 1, 177], [528, "CDISCPILOT01", "SE", "01-710-1368", 1, "SCRN", "Screen", "", "SCREENING", "2013-10-21", "2013-10-23", -2, 1], [529, "CDISCPILOT01", "SE", "01-710-1368", 4, "PBO", "Placebo", "", "TREATMENT", "2013-10-23", "2014-04-24", 1, 184], [530, "CDISCPILOT01", "SE", "01-710-1376", 1, "SCRN", "Screen", "", "SCREENING", "2014-04-21", "2014-05-02", null, null], [531, "CDISCPILOT01", "SE", "01-710-1380", 1, "SCRN", "Screen", "", "SCREENING", "2013-06-02", "2013-06-12", null, null], [532, "CDISCPILOT01", "SE", "01-710-1385", 1, "SCRN", "Screen", "", "SCREENING", "2012-10-21", "2012-10-29", -8, 1], [533, "CDISCPILOT01", "SE", "01-710-1385", 4, "LO", "Low", "", "TREATMENT", "2012-10-29", "2013-02-24", 1, 119], [534, "CDISCPILOT01", "SE", "01-710-1385", 6, "FOLO", "Follow_up", "", "FOLLOW-UP", "2013-02-24", "2013-02-24", 119, 119], [535, "CDISCPILOT01", "SE", "01-710-1408", 1, "SCRN", "Screen", "", "SCREENING", "2012-12-26", "2013-01-05", -10, 1], [536, "CDISCPILOT01", "SE", "01-710-1408", 3, "HIS", "High_Start", "", "TREATMENT", "2013-01-05", "2013-01-24", 1, 20], [537, "CDISCPILOT01", "SE", "01-710-1408", 4, "HIM", "High_Middle", "", "TREATMENT", "2013-01-24", "2013-06-28", 20, 175], [538, "CDISCPILOT01", "SE", "01-710-1408", 5, "HIE", "High_End", "", "TREATMENT", "2013-06-28", "2013-07-12", 175, 189], [539, "CDISCPILOT01", "SE", "01-710-1443", 1, "SCRN", "Screen", "", "SCREENING", "2013-12-13", "2013-12-14", null, null], [540, "CDISCPILOT01", "SE", "01-711-1012", 1, "SCRN", "Screen", "", "SCREENING", "2013-03-20", "2013-04-03", -14, 1], [541, "CDISCPILOT01", "SE", "01-711-1012", 3, "HIS", "High_Start", "", "TREATMENT", "2013-04-03", "2013-04-17", 1, 15], [542, "CDISCPILOT01", "SE", "01-711-1012", 4, "HIM", "High_Middle", "", "TREATMENT", "2013-04-17", "2013-05-02", 15, 30], [543, "CDISCPILOT01", "SE", "01-711-1012", 6, "FOLO", "Follow_up", "", "FOLLOW-UP", "2013-05-02", "2013-09-18", 30, 169], [544, "CDISCPILOT01", "SE", "01-711-1022", 1, "SCRN", "Screen", "", "SCREENING", "2014-03-17", "2014-03-17", null, null], [545, "CDISCPILOT01", "SE", "01-711-1036", 1, "SCRN", "Screen", "", "SCREENING", "2012-07-20", "2012-07-29", -9, 1], [546, "CDISCPILOT01", "SE", "01-711-1036", 4, "PBO", "Placebo", "", "TREATMENT", "2012-07-29", "2013-02-10", 1, 197], [547, "CDISCPILOT01", "SE", "01-711-1143", 1, "SCRN", "Screen", "", "SCREENING", "2013-03-30", "2013-04-03", -4, 1], [548, "CDISCPILOT01", "SE", "01-711-1143", 4, "LO", "Low", "", "TREATMENT", "2013-04-03", "2013-09-22", 1, 173], [549, "CDISCPILOT01", "SE", "01-711-1143", 6, "FOLO", "Follow_up", "", "FOLLOW-UP", "2013-09-22", "2013-09-22", 173, 173], [550, "CDISCPILOT01", "SE", "01-711-1163", 1, "SCRN", "Screen", "", "SCREENING", "2012-11-08", "2012-11-08", null, null], [551, "CDISCPILOT01", "SE", "01-711-1173", 1, "SCRN", "Screen", "", "SCREENING", "2012-10-04", "2012-10-04", null, null], [552, "CDISCPILOT01", "SE", "01-711-1226", 1, "SCRN", "Screen", "", "SCREENING", "2013-10-24", "2013-10-24", null, null], [553, "CDISCPILOT01", "SE", "01-711-1251", 1, "SCRN", "Screen", "", "SCREENING", "2014-02-28", "2014-02-28", null, null], [554, "CDISCPILOT01", "SE", "01-711-1283", 1, "SCRN", "Screen", "", "SCREENING", "2014-03-27", "2014-03-27", null, null], [555, "CDISCPILOT01", "SE", "01-711-1284", 1, "SCRN", "Screen", "", "SCREENING", "2013-08-05", "2013-08-05", null, null], [556, "CDISCPILOT01", "SE", "01-711-1290", 1, "SCRN", "Screen", "", "SCREENING", "2013-12-20", "2013-12-20", null, null], [557, "CDISCPILOT01", "SE", "01-711-1433", 1, "SCRN", "Screen", "", "SCREENING", "2013-01-23", "2013-01-27", -4, 1], [558, "CDISCPILOT01", "SE", "01-711-1433", 3, "HIS", "High_Start", "", "TREATMENT", "2013-01-27", "2013-02-06", 1, 11], [559, "CDISCPILOT01", "SE", "01-713-1043", 1, "SCRN", "Screen", "", "SCREENING", "2013-08-17", "2013-09-15", -29, 1], [560, "CDISCPILOT01", "SE", "01-713-1043", 4, "LO", "Low", "", "TREATMENT", "2013-09-15", "2014-03-24", 1, 191], [561, "CDISCPILOT01", "SE", "01-713-1073", 1, "SCRN", "Screen", "", "SCREENING", "2014-03-15", "2014-03-30", -15, 1], [562, "CDISCPILOT01", "SE", "01-713-1073", 4, "LO", "Low", "", "TREATMENT", "2014-03-30", "2014-10-05", 1, 190], [563, "CDISCPILOT01", "SE", "01-713-1106", 1, "SCRN", "Screen", "", "SCREENING", "2012-10-03", "2012-10-31", -28, 1], [564, "CDISCPILOT01", "SE", "01-713-1106", 3, "HIS", "High_Start", "", "TREATMENT", "2012-10-31", "2012-11-15", 1, 16], [565, "CDISCPILOT01", "SE", "01-713-1106", 4, "HIM", "High_Middle", "", "TREATMENT", "2012-11-15", "2013-04-22", 16, 174], [566, "CDISCPILOT01", "SE", "01-713-1106", 5, "HIE", "High_End", "", "TREATMENT", "2013-04-22", "2013-05-06", 174, 188], [567, "CDISCPILOT01", "SE", "01-713-1141", 1, "SCRN", "Screen", "", "SCREENING", "2013-05-23", "2013-05-31", -8, 1], [568, "CDISCPILOT01", "SE", "01-713-1141", 3, "HIS", "High_Start", "", "TREATMENT", "2013-05-31", "2013-06-14", 1, 15], [569, "CDISCPILOT01", "SE", "01-713-1141", 4, "HIM", "High_Middle", "", "TREATMENT", "2013-06-14", "2013-08-06", 15, 68], [570, "CDISCPILOT01", "SE", "01-713-1179", 1, "SCRN", "Screen", "", "SCREENING", "2013-07-11", "2013-08-09", -29, 1], [571, "CDISCPILOT01", "SE", "01-713-1179", 4, "PBO", "Placebo", "", "TREATMENT", "2013-08-09", "2014-02-05", 1, 181], [572, "CDISCPILOT01", "SE", "01-713-1209", 1, "SCRN", "Screen", "", "SCREENING", "2013-05-16", "2013-05-27", -11, 1], [573, "CDISCPILOT01", "SE", "01-713-1209", 3, "HIS", "High_Start", "", "TREATMENT", "2013-05-27", "2013-06-14", 1, 19], [574, "CDISCPILOT01", "SE", "01-713-1209", 4, "HIM", "High_Middle", "", "TREATMENT", "2013-06-14", "2013-11-14", 19, 172], [575, "CDISCPILOT01", "SE", "01-713-1209", 5, "HIE", "High_End", "", "TREATMENT", "2013-11-14", "2013-11-22", 172, 180], [576, "CDISCPILOT01", "SE", "01-713-1256", 1, "SCRN", "Screen", "", "SCREENING", "2012-09-10", "2012-09-19", -9, 1], [577, "CDISCPILOT01", "SE", "01-713-1256", 4, "PBO", "Placebo", "", "TREATMENT", "2012-09-19", "2013-03-25", 1, 188], [578, "CDISCPILOT01", "SE", "01-713-1269", 1, "SCRN", "Screen", "", "SCREENING", "2014-01-14", "2014-01-27", -13, 1], [579, "CDISCPILOT01", "SE", "01-713-1269", 4, "PBO", "Placebo", "", "TREATMENT", "2014-01-27", "2014-07-28", 1, 183], [580, "CDISCPILOT01", "SE", "01-713-1448", 1, "SCRN", "Screen", "", "SCREENING", "2014-01-05", "2014-01-19", -14, 1], [581, "CDISCPILOT01", "SE", "01-713-1448", 4, "LO", "Low", "", "TREATMENT", "2014-01-19", "2014-05-17", 1, 119], [582, "CDISCPILOT01", "SE", "01-713-1448", 6, "FOLO", "Follow_up", "", "FOLLOW-UP", "2014-05-17", "2014-07-27", 119, 190], [583, "CDISCPILOT01", "SE", "01-714-1035", 1, "SCRN", "Screen", "", "SCREENING", "2014-04-03", "2014-04-17", -14, 1], [584, "CDISCPILOT01", "SE", "01-714-1035", 4, "PBO", "Placebo", "", "TREATMENT", "2014-04-17", "2014-10-16", 1, 183], [585, "CDISCPILOT01", "SE", "01-714-1068", 1, "SCRN", "Screen", "", "SCREENING", "2013-07-31", "2013-08-08", -8, 1], [586, "CDISCPILOT01", "SE", "01-714-1068", 4, "LO", "Low", "", "TREATMENT", "2013-08-08", "2013-10-16", 1, 70], [587, "CDISCPILOT01", "SE", "01-714-1068", 6, "FOLO", "Follow_up", "", "FOLLOW-UP", "2013-10-16", "2013-10-23", 70, 77], [588, "CDISCPILOT01", "SE", "01-714-1195", 1, "SCRN", "Screen", "", "SCREENING", "2013-04-16", "2013-04-26", -10, 1], [589, "CDISCPILOT01", "SE", "01-714-1195", 4, "LO", "Low", "", "TREATMENT", "2013-04-26", "2013-10-23", 1, 181], [590, "CDISCPILOT01", "SE", "01-714-1288", 1, "SCRN", "Screen", "", "SCREENING", "2013-11-24", "2013-12-04", -10, 1], [591, "CDISCPILOT01", "SE", "01-714-1288", 3, "HIS", "High_Start", "", "TREATMENT", "2013-12-04", "2013-12-17", 1, 14], [592, "CDISCPILOT01", "SE", "01-714-1288", 4, "HIM", "High_Middle", "", "TREATMENT", "2013-12-17", "2014-05-27", 14, 175], [593, "CDISCPILOT01", "SE", "01-714-1288", 5, "HIE", "High_End", "", "TREATMENT", "2014-05-27", "2014-06-17", 175, 196], [594, "CDISCPILOT01", "SE", "01-714-1375", 1, "SCRN", "Screen", "", "SCREENING", "2013-02-23", "2013-02-26", -3, 1], [595, "CDISCPILOT01", "SE", "01-714-1375", 4, "PBO", "Placebo", "", "TREATMENT", "2013-02-26", "2013-09-07", 1, 194], [596, "CDISCPILOT01", "SE", "01-714-1425", 1, "SCRN", "Screen", "", "SCREENING", "2013-08-11", "2013-08-15", -4, 1], [597, "CDISCPILOT01", "SE", "01-714-1425", 3, "HIS", "High_Start", "", "TREATMENT", "2013-08-15", "2013-08-22", 1, 8], [598, "CDISCPILOT01", "SE", "01-715-1085", 1, "SCRN", "Screen", "", "SCREENING", "2013-02-03", "2013-02-16", -13, 1], [599, "CDISCPILOT01", "SE", "01-715-1085", 4, "LO", "Low", "", "TREATMENT", "2013-02-16", "2013-08-18", 1, 184], [600, "CDISCPILOT01", "SE", "01-715-1107", 1, "SCRN", "Screen", "", "SCREENING", "2013-02-12", "2013-02-26", -14, 1], [601, "CDISCPILOT01", "SE", "01-715-1107", 4, "LO", "Low", "", "TREATMENT", "2013-02-26", "2013-05-13", 1, 77], [602, "CDISCPILOT01", "SE", "01-715-1107", 6, "FOLO", "Follow_up", "", "FOLLOW-UP", "2013-05-13", "2013-08-14", 77, 170], [603, "CDISCPILOT01", "SE", "01-715-1134", 1, "SCRN", "Screen", "", "SCREENING", "2014-04-17", "2014-05-21", null, null], [604, "CDISCPILOT01", "SE", "01-715-1134", 2, "UNPLAN", "", "Unknown reason for Visit 4", "TREATMENT", "2014-05-21", "2014-05-21", null, null], [605, "CDISCPILOT01", "SE", "01-715-1155", 1, "SCRN", "Screen", "", "SCREENING", "2013-11-29", "2013-12-13", -14, 1], [606, "CDISCPILOT01", "SE", "01-715-1155", 4, "PBO", "Placebo", "", "TREATMENT", "2013-12-13", "2014-04-26", 1, 135], [607, "CDISCPILOT01", "SE", "01-715-1155", 6, "FOLO", "Follow_up", "", "FOLLOW-UP", "2014-04-26", "2014-04-26", 135, 135], [608, "CDISCPILOT01", "SE", "01-715-1207", 1, "SCRN", "Screen", "", "SCREENING", "2012-11-12", "2012-11-18", -6, 1], [609, "CDISCPILOT01", "SE", "01-715-1207", 4, "PBO", "Placebo", "", "TREATMENT", "2012-11-18", "2013-06-01", 1, 196], [610, "CDISCPILOT01", "SE", "01-715-1225", 1, "SCRN", "Screen", "", "SCREENING", "2013-01-22", "2013-05-07", null, null], [611, "CDISCPILOT01", "SE", "01-715-1319", 1, "SCRN", "Screen", "", "SCREENING", "2013-02-03", "2013-02-17", -14, 1], [612, "CDISCPILOT01", "SE", "01-715-1319", 3, "HIS", "High_Start", "", "TREATMENT", "2013-02-17", "2013-03-03", 1, 15], [613, "CDISCPILOT01", "SE", "01-715-1319", 4, "HIM", "High_Middle", "", "TREATMENT", "2013-03-03", "2013-03-18", 15, 30], [614, "CDISCPILOT01", "SE", "01-715-1321", 1, "SCRN", "Screen", "", "SCREENING", "2014-02-06", "2014-02-11", -5, 1], [615, "CDISCPILOT01", "SE", "01-715-1321", 3, "HIS", "High_Start", "", "TREATMENT", "2014-02-11", "2014-02-26", 1, 16], [616, "CDISCPILOT01", "SE", "01-715-1321", 4, "HIM", "High_Middle", "", "TREATMENT", "2014-02-26", "2014-04-22", 16, 71], [617, "CDISCPILOT01", "SE", "01-715-1333", 1, "SCRN", "Screen", "", "SCREENING", "2013-06-03", "2013-11-03", null, null], [618, "CDISCPILOT01", "SE", "01-715-1397", 1, "SCRN", "Screen", "", "SCREENING", "2013-03-20", "2013-04-03", -14, 1], [619, "CDISCPILOT01", "SE", "01-715-1397", 4, "PBO", "Placebo", "", "TREATMENT", "2013-04-03", "2013-10-03", 1, 184], [620, "CDISCPILOT01", "SE", "01-715-1405", 1, "SCRN", "Screen", "", "SCREENING", "2013-06-27", "2013-07-06", -9, 1], [621, "CDISCPILOT01", "SE", "01-715-1405", 4, "LO", "Low", "", "TREATMENT", "2013-07-06", "2013-07-13", 1, 8], [622, "CDISCPILOT01", "SE", "01-715-1405", 6, "FOLO", "Follow_up", "", "FOLLOW-UP", "2013-07-13", "2014-01-11", 8, 190], [623, "CDISCPILOT01", "SE", "01-715-1407", 1, "SCRN", "Screen", "", "SCREENING", "2012-10-24", "2013-02-07", null, null], [624, "CDISCPILOT01", "SE", "01-716-1003", 1, "SCRN", "Screen", "", "SCREENING", "2014-03-29", "2014-03-29", null, null], [625, "CDISCPILOT01", "SE", "01-716-1024", 1, "SCRN", "Screen", "", "SCREENING", "2012-07-06", "2012-07-09", -3, 1], [626, "CDISCPILOT01", "SE", "01-716-1024", 4, "PBO", "Placebo", "", "TREATMENT", "2012-07-09", "2013-01-20", 1, 196], [627, "CDISCPILOT01", "SE", "01-716-1026", 1, "SCRN", "Screen", "", "SCREENING", "2014-03-23", "2014-04-02", -10, 1], [628, "CDISCPILOT01", "SE", "01-716-1026", 4, "PBO", "Placebo", "", "TREATMENT", "2014-04-02", "2014-10-16", 1, 198], [629, "CDISCPILOT01", "SE", "01-716-1030", 1, "SCRN", "Screen", "", "SCREENING", "2013-12-25", "2013-12-28", -3, 1], [630, "CDISCPILOT01", "SE", "01-716-1030", 3, "HIS", "High_Start", "", "TREATMENT", "2013-12-28", "2014-01-10", 1, 14], [631, "CDISCPILOT01", "SE", "01-716-1044", 1, "SCRN", "Screen", "", "SCREENING", "2013-04-20", "2013-04-27", -7, 1], [632, "CDISCPILOT01", "SE", "01-716-1044", 4, "PBO", "Placebo", "", "TREATMENT", "2013-04-27", "2013-11-03", 1, 191], [633, "CDISCPILOT01", "SE", "01-716-1061", 1, "SCRN", "Screen", "", "SCREENING", "2014-02-14", "2014-02-14", null, null], [634, "CDISCPILOT01", "SE", "01-716-1063", 1, "SCRN", "Screen", "", "SCREENING", "2013-05-06", "2013-05-09", -3, 1], [635, "CDISCPILOT01", "SE", "01-716-1063", 4, "LO", "Low", "", "TREATMENT", "2013-05-09", "2013-08-28", 1, 112], [636, "CDISCPILOT01", "SE", "01-716-1063", 6, "FOLO", "Follow_up", "", "FOLLOW-UP", "2013-08-28", "2013-11-17", 112, 193], [637, "CDISCPILOT01", "SE", "01-716-1071", 1, "SCRN", "Screen", "", "SCREENING", "2013-06-03", "2013-06-08", -5, 1], [638, "CDISCPILOT01", "SE", "01-716-1071", 3, "HIS", "High_Start", "", "TREATMENT", "2013-06-08", "2013-06-22", 1, 15], [639, "CDISCPILOT01", "SE", "01-716-1071", 4, "HIM", "High_Middle", "", "TREATMENT", "2013-06-22", "2013-08-01", 15, 55], [640, "CDISCPILOT01", "SE", "01-716-1071", 6, "FOLO", "Follow_up", "", "FOLLOW-UP", "2013-08-01", "2013-12-16", 55, 192], [641, "CDISCPILOT01", "SE", "01-716-1094", 1, "SCRN", "Screen", "", "SCREENING", "2012-12-16", "2012-12-19", -3, 1], [642, "CDISCPILOT01", "SE", "01-716-1094", 4, "LO", "Low", "", "TREATMENT", "2012-12-19", "2013-01-26", 1, 39], [643, "CDISCPILOT01", "SE", "01-716-1094", 6, "FOLO", "Follow_up", "", "FOLLOW-UP", "2013-01-26", "2013-06-22", 39, 186], [644, "CDISCPILOT01", "SE", "01-716-1103", 1, "SCRN", "Screen", "", "SCREENING", "2014-03-18", "2014-03-20", -2, 1], [645, "CDISCPILOT01", "SE", "01-716-1103", 4, "LO", "Low", "", "TREATMENT", "2014-03-20", "2014-09-20", 1, 185], [646, "CDISCPILOT01", "SE", "01-716-1108", 1, "SCRN", "Screen", "", "SCREENING", "2013-02-04", "2013-02-12", -8, 1], [647, "CDISCPILOT01", "SE", "01-716-1108", 4, "PBO", "Placebo", "", "TREATMENT", "2013-02-12", "2013-08-10", 1, 180], [648, "CDISCPILOT01", "SE", "01-716-1151", 1, "SCRN", "Screen", "", "SCREENING", "2013-01-23", "2013-02-01", -9, 1], [649, "CDISCPILOT01", "SE", "01-716-1151", 4, "LO", "Low", "", "TREATMENT", "2013-02-01", "2013-06-07", 1, 127], [650, "CDISCPILOT01", "SE", "01-716-1151", 6, "FOLO", "Follow_up", "", "FOLLOW-UP", "2013-06-07", "2013-08-13", 127, 194], [651, "CDISCPILOT01", "SE", "01-716-1157", 1, "SCRN", "Screen", "", "SCREENING", "2013-09-23", "2013-10-02", -9, 1], [652, "CDISCPILOT01", "SE", "01-716-1157", 4, "LO", "Low", "", "TREATMENT", "2013-10-02", "2014-04-05", 1, 186], [653, "CDISCPILOT01", "SE", "01-716-1160", 1, "SCRN", "Screen", "", "SCREENING", "2013-03-23", "2013-04-05", -13, 1], [654, "CDISCPILOT01", "SE", "01-716-1160", 4, "PBO", "Placebo", "", "TREATMENT", "2013-04-05", "2013-10-11", 1, 190], [655, "CDISCPILOT01", "SE", "01-716-1167", 1, "SCRN", "Screen", "", "SCREENING", "2012-09-30", "2012-10-08", -8, 1], [656, "CDISCPILOT01", "SE", "01-716-1167", 4, "LO", "Low", "", "TREATMENT", "2012-10-08", "2013-04-13", 1, 188], [657, "CDISCPILOT01", "SE", "01-716-1177", 1, "SCRN", "Screen", "", "SCREENING", "2014-08-29", "2014-09-02", -4, 1], [658, "CDISCPILOT01", "SE", "01-716-1177", 4, "PBO", "Placebo", "", "TREATMENT", "2014-09-02", "2015-03-05", 1, 185], [659, "CDISCPILOT01", "SE", "01-716-1189", 1, "SCRN", "Screen", "", "SCREENING", "2012-10-07", "2012-10-09", -2, 1], [660, "CDISCPILOT01", "SE", "01-716-1189", 3, "HIS", "High_Start", "", "TREATMENT", "2012-10-09", "2012-10-24", 1, 16], [661, "CDISCPILOT01", "SE", "01-716-1189", 4, "HIM", "High_Middle", "", "TREATMENT", "2012-10-24", "2013-03-03", 16, 146], [662, "CDISCPILOT01", "SE", "01-716-1189", 6, "FOLO", "Follow_up", "", "FOLLOW-UP", "2013-03-03", "2013-04-08", 146, 182], [663, "CDISCPILOT01", "SE", "01-716-1229", 1, "SCRN", "Screen", "", "SCREENING", "2013-02-14", "2013-02-20", -6, 1], [664, "CDISCPILOT01", "SE", "01-716-1229", 3, "HIS", "High_Start", "", "TREATMENT", "2013-02-20", "2013-03-06", 1, 15], [665, "CDISCPILOT01", "SE", "01-716-1229", 4, "HIM", "High_Middle", "", "TREATMENT", "2013-03-06", "2013-04-02", 15, 42], [666, "CDISCPILOT01", "SE", "01-716-1229", 6, "FOLO", "Follow_up", "", "FOLLOW-UP", "2013-04-02", "2013-04-02", 42, 42], [667, "CDISCPILOT01", "SE", "01-716-1244", 1, "SCRN", "Screen", "", "SCREENING", "2013-08-15", "2013-09-03", null, null], [668, "CDISCPILOT01", "SE", "01-716-1298", 1, "SCRN", "Screen", "", "SCREENING", "2013-04-04", "2013-04-08", -4, 1], [669, "CDISCPILOT01", "SE", "01-716-1298", 4, "LO", "Low", "", "TREATMENT", "2013-04-08", "2013-07-06", 1, 90], [670, "CDISCPILOT01", "SE", "01-716-1298", 6, "FOLO", "Follow_up", "", "FOLLOW-UP", "2013-07-06", "2013-10-07", 90, 183], [671, "CDISCPILOT01", "SE", "01-716-1305", 1, "SCRN", "Screen", "", "SCREENING", "2013-08-06", "2013-08-26", null, null], [672, "CDISCPILOT01", "SE", "01-716-1305", 6, "FOLO", "Follow_up", "", "FOLLOW-UP", "2013-08-26", "2013-08-28", null, null], [673, "CDISCPILOT01", "SE", "01-716-1308", 1, "SCRN", "Screen", "", "SCREENING", "2013-08-23", "2013-08-28", -5, 1], [674, "CDISCPILOT01", "SE", "01-716-1308", 4, "PBO", "Placebo", "", "TREATMENT", "2013-08-28", "2013-10-07", 1, 41], [675, "CDISCPILOT01", "SE", "01-716-1311", 1, "SCRN", "Screen", "", "SCREENING", "2014-05-08", "2014-05-14", -6, 1], [676, "CDISCPILOT01", "SE", "01-716-1311", 4, "LO", "Low", "", "TREATMENT", "2014-05-14", "2014-09-30", 1, 140], [677, "CDISCPILOT01", "SE", "01-716-1311", 6, "FOLO", "Follow_up", "", "FOLLOW-UP", "2014-09-30", "2014-11-15", 140, 186], [678, "CDISCPILOT01", "SE", "01-716-1331", 1, "SCRN", "Screen", "", "SCREENING", "2013-11-25", "2013-11-25", null, null], [679, "CDISCPILOT01", "SE", "01-716-1364", 1, "SCRN", "Screen", "", "SCREENING", "2013-06-27", "2013-07-04", -7, 1], [680, "CDISCPILOT01", "SE", "01-716-1364", 3, "HIS", "High_Start", "", "TREATMENT", "2013-07-04", "2013-07-17", 1, 14], [681, "CDISCPILOT01", "SE", "01-716-1364", 4, "HIM", "High_Middle", "", "TREATMENT", "2013-07-17", "2013-12-23", 14, 173], [682, "CDISCPILOT01", "SE", "01-716-1364", 5, "HIE", "High_End", "", "TREATMENT", "2013-12-23", "2014-01-09", 173, 190], [683, "CDISCPILOT01", "SE", "01-716-1373", 1, "SCRN", "Screen", "", "SCREENING", "2012-11-24", "2012-12-14", -20, 1], [684, "CDISCPILOT01", "SE", "01-716-1373", 3, "HIS", "High_Start", "", "TREATMENT", "2012-12-14", "2012-12-30", 1, 17], [685, "CDISCPILOT01", "SE", "01-716-1373", 4, "HIM", "High_Middle", "", "TREATMENT", "2012-12-30", "2013-02-28", 17, 77], [686, "CDISCPILOT01", "SE", "01-716-1373", 6, "FOLO", "Follow_up", "", "FOLLOW-UP", "2013-02-28", "2013-02-28", 77, 77], [687, "CDISCPILOT01", "SE", "01-716-1418", 1, "SCRN", "Screen", "", "SCREENING", "2013-04-27", "2013-05-05", -8, 1], [688, "CDISCPILOT01", "SE", "01-716-1418", 3, "HIS", "High_Start", "", "TREATMENT", "2013-05-05", "2013-05-19", 1, 15], [689, "CDISCPILOT01", "SE", "01-716-1418", 4, "HIM", "High_Middle", "", "TREATMENT", "2013-05-19", "2013-11-06", 15, 186], [690, "CDISCPILOT01", "SE", "01-716-1418", 5, "HIE", "High_End", "", "TREATMENT", "2013-11-06", "2013-11-20", 186, 200], [691, "CDISCPILOT01", "SE", "01-716-1441", 1, "SCRN", "Screen", "", "SCREENING", "2014-01-13", "2014-01-22", -9, 1], [692, "CDISCPILOT01", "SE", "01-716-1441", 4, "PBO", "Placebo", "", "TREATMENT", "2014-01-22", "2014-07-22", 1, 182], [693, "CDISCPILOT01", "SE", "01-716-1447", 1, "SCRN", "Screen", "", "SCREENING", "2013-12-10", "2013-12-16", -6, 1], [694, "CDISCPILOT01", "SE", "01-716-1447", 3, "HIS", "High_Start", "", "TREATMENT", "2013-12-16", "2013-12-31", 1, 16], [695, "CDISCPILOT01", "SE", "01-716-1447", 4, "HIM", "High_Middle", "", "TREATMENT", "2013-12-31", "2014-06-07", 16, 174], [696, "CDISCPILOT01", "SE", "01-716-1447", 5, "HIE", "High_End", "", "TREATMENT", "2014-06-07", "2014-06-17", 174, 184], [697, "CDISCPILOT01", "SE", "01-717-1004", 1, "SCRN", "Screen", "", "SCREENING", "2014-01-01", "2014-01-14", -13, 1], [698, "CDISCPILOT01", "SE", "01-717-1004", 4, "LO", "Low", "", "TREATMENT", "2014-01-14", "2014-07-16", 1, 184], [699, "CDISCPILOT01", "SE", "01-717-1109", 1, "SCRN", "Screen", "", "SCREENING", "2014-01-20", "2014-01-27", -7, 1], [700, "CDISCPILOT01", "SE", "01-717-1109", 3, "HIS", "High_Start", "", "TREATMENT", "2014-01-27", "2014-02-10", 1, 15], [701, "CDISCPILOT01", "SE", "01-717-1109", 4, "HIM", "High_Middle", "", "TREATMENT", "2014-02-10", "2014-07-18", 15, 173], [702, "CDISCPILOT01", "SE", "01-717-1109", 5, "HIE", "High_End", "", "TREATMENT", "2014-07-18", "2014-07-28", 173, 183], [703, "CDISCPILOT01", "SE", "01-717-1174", 1, "SCRN", "Screen", "", "SCREENING", "2013-01-16", "2013-01-22", -6, 1], [704, "CDISCPILOT01", "SE", "01-717-1174", 3, "HIS", "High_Start", "", "TREATMENT", "2013-01-22", "2013-02-04", 1, 14], [705, "CDISCPILOT01", "SE", "01-717-1174", 4, "HIM", "High_Middle", "", "TREATMENT", "2013-02-04", "2013-07-07", 14, 167], [706, "CDISCPILOT01", "SE", "01-717-1174", 5, "HIE", "High_End", "", "TREATMENT", "2013-07-07", "2013-07-24", 167, 184], [707, "CDISCPILOT01", "SE", "01-717-1201", 1, "SCRN", "Screen", "", "SCREENING", "2013-12-12", "2013-12-19", -7, 1], [708, "CDISCPILOT01", "SE", "01-717-1201", 4, "PBO", "Placebo", "", "TREATMENT", "2013-12-19", "2014-02-21", 1, 65], [709, "CDISCPILOT01", "SE", "01-717-1344", 1, "SCRN", "Screen", "", "SCREENING", "2014-01-01", "2014-01-11", -10, 1], [710, "CDISCPILOT01", "SE", "01-717-1344", 4, "PBO", "Placebo", "", "TREATMENT", "2014-01-11", "2014-03-14", 1, 63], [711, "CDISCPILOT01", "SE", "01-717-1357", 1, "SCRN", "Screen", "", "SCREENING", "2013-04-21", "2013-05-01", -10, 1], [712, "CDISCPILOT01", "SE", "01-717-1357", 3, "HIS", "High_Start", "", "TREATMENT", "2013-05-01", "2013-05-15", 1, 15], [713, "CDISCPILOT01", "SE", "01-717-1357", 4, "HIM", "High_Middle", "", "TREATMENT", "2013-05-15", "2013-10-20", 15, 173], [714, "CDISCPILOT01", "SE", "01-717-1446", 1, "SCRN", "Screen", "", "SCREENING", "2013-08-20", "2013-09-01", -12, 1], [715, "CDISCPILOT01", "SE", "01-717-1446", 4, "LO", "Low", "", "TREATMENT", "2013-09-01", "2014-03-17", 1, 198], [716, "CDISCPILOT01", "SE", "01-718-1066", 1, "SCRN", "Screen", "", "SCREENING", "2013-06-28", "2013-07-07", -9, 1], [717, "CDISCPILOT01", "SE", "01-718-1066", 4, "LO", "Low", "", "TREATMENT", "2013-07-07", "2013-07-30", 1, 24], [718, "CDISCPILOT01", "SE", "01-718-1066", 6, "FOLO", "Follow_up", "", "FOLLOW-UP", "2013-07-30", "2014-01-13", 24, 191], [719, "CDISCPILOT01", "SE", "01-718-1079", 1, "SCRN", "Screen", "", "SCREENING", "2012-09-11", "2012-09-19", -8, 1], [720, "CDISCPILOT01", "SE", "01-718-1079", 4, "LO", "Low", "", "TREATMENT", "2012-09-19", "2012-11-06", 1, 49], [721, "CDISCPILOT01", "SE", "01-718-1079", 6, "FOLO", "Follow_up", "", "FOLLOW-UP", "2012-11-06", "2013-03-05", 49, 168], [722, "CDISCPILOT01", "SE", "01-718-1101", 1, "SCRN", "Screen", "", "SCREENING", "2013-02-01", "2013-02-17", -16, 1], [723, "CDISCPILOT01", "SE", "01-718-1101", 3, "HIS", "High_Start", "", "TREATMENT", "2013-02-17", "2013-03-03", 1, 15], [724, "CDISCPILOT01", "SE", "01-718-1101", 4, "HIM", "High_Middle", "", "TREATMENT", "2013-03-03", "2013-08-02", 15, 167], [725, "CDISCPILOT01", "SE", "01-718-1139", 1, "SCRN", "Screen", "", "SCREENING", "2013-05-03", "2013-05-19", -16, 1], [726, "CDISCPILOT01", "SE", "01-718-1139", 4, "PBO", "Placebo", "", "TREATMENT", "2013-05-19", "2013-11-17", 1, 183], [727, "CDISCPILOT01", "SE", "01-718-1150", 1, "SCRN", "Screen", "", "SCREENING", "2013-01-12", "2013-01-19", -7, 1], [728, "CDISCPILOT01", "SE", "01-718-1150", 4, "PBO", "Placebo", "", "TREATMENT", "2013-01-19", "2013-07-31", 1, 194], [729, "CDISCPILOT01", "SE", "01-718-1170", 1, "SCRN", "Screen", "", "SCREENING", "2013-08-25", "2013-09-16", -22, 1], [730, "CDISCPILOT01", "SE", "01-718-1170", 4, "LO", "Low", "", "TREATMENT", "2013-09-16", "2013-11-03", 1, 49], [731, "CDISCPILOT01", "SE", "01-718-1170", 6, "FOLO", "Follow_up", "", "FOLLOW-UP", "2013-11-03", "2014-03-15", 49, 181], [732, "CDISCPILOT01", "SE", "01-718-1172", 1, "SCRN", "Screen", "", "SCREENING", "2013-09-15", "2013-09-21", -6, 1], [733, "CDISCPILOT01", "SE", "01-718-1172", 4, "PBO", "Placebo", "", "TREATMENT", "2013-09-21", "2013-11-29", 1, 70], [734, "CDISCPILOT01", "SE", "01-718-1172", 6, "FOLO", "Follow_up", "", "FOLLOW-UP", "2013-11-29", "2014-03-21", 70, 182], [735, "CDISCPILOT01", "SE", "01-718-1250", 1, "SCRN", "Screen", "", "SCREENING", "2013-08-21", "2013-09-21", -31, 1], [736, "CDISCPILOT01", "SE", "01-718-1250", 4, "LO", "Low", "", "TREATMENT", "2013-09-21", "2014-02-08", 1, 141], [737, "CDISCPILOT01", "SE", "01-718-1250", 6, "FOLO", "Follow_up", "", "FOLLOW-UP", "2014-02-08", "2014-03-08", 141, 169], [738, "CDISCPILOT01", "SE", "01-718-1254", 1, "SCRN", "Screen", "", "SCREENING", "2013-06-28", "2013-07-10", -12, 1], [739, "CDISCPILOT01", "SE", "01-718-1254", 4, "LO", "Low", "", "TREATMENT", "2013-07-10", "2014-01-09", 1, 184], [740, "CDISCPILOT01", "SE", "01-718-1328", 1, "SCRN", "Screen", "", "SCREENING", "2013-01-28", "2013-02-01", -4, 1], [741, "CDISCPILOT01", "SE", "01-718-1328", 3, "HIS", "High_Start", "", "TREATMENT", "2013-02-01", "2013-02-14", 1, 14], [742, "CDISCPILOT01", "SE", "01-718-1328", 4, "HIM", "High_Middle", "", "TREATMENT", "2013-02-14", "2013-05-01", 14, 90], [743, "CDISCPILOT01", "SE", "01-718-1328", 6, "FOLO", "Follow_up", "", "FOLLOW-UP", "2013-05-01", "2013-07-24", 90, 174], [744, "CDISCPILOT01", "SE", "01-718-1355", 1, "SCRN", "Screen", "", "SCREENING", "2013-02-12", "2013-02-28", -16, 1], [745, "CDISCPILOT01", "SE", "01-718-1355", 4, "PBO", "Placebo", "", "TREATMENT", "2013-02-28", "2013-08-29", 1, 183], [746, "CDISCPILOT01", "SE", "01-718-1371", 1, "SCRN", "Screen", "", "SCREENING", "2013-04-11", "2013-04-26", -15, 1], [747, "CDISCPILOT01", "SE", "01-718-1371", 3, "HIS", "High_Start", "", "TREATMENT", "2013-04-26", "2013-05-08", 1, 13], [748, "CDISCPILOT01", "SE", "01-718-1371", 4, "HIM", "High_Middle", "", "TREATMENT", "2013-05-08", "2013-08-08", 13, 105], [749, "CDISCPILOT01", "SE", "01-718-1427", 1, "SCRN", "Screen", "", "SCREENING", "2012-12-13", "2012-12-17", -4, 1], [750, "CDISCPILOT01", "SE", "01-718-1427", 3, "HIS", "High_Start", "", "TREATMENT", "2012-12-17", "2012-12-31", 1, 15], [751, "CDISCPILOT01", "SE", "01-718-1427", 4, "HIM", "High_Middle", "", "TREATMENT", "2012-12-31", "2013-02-18", 15, 64], [752, "CDISCPILOT01", "SE", "01-718-1427", 6, "FOLO", "Follow_up", "", "FOLLOW-UP", "2013-02-18", "2013-06-03", 64, 169]]}}}}