{"creationDateTime": "2023-07-31T14:45:50", "datasetJSONVersion": "1.0.0", "fileOID": "UpdatedCDISCPILOT.CDISC SDTM.3.2.SV", "clinicalData": {"studyOID": "UpdatedCDISCPILOT.CDISC SDTM.3.2", "metaDataVersionOID": "MDV.UpdatedCDISCPILOT.CDISC SDTM.3.2", "itemGroupData": {"SV": {"records": 3559, "name": "SV", "label": "Subject Visits", "items": [{"OID": "ITEMGROUPDATASEQ", "name": "ITEMGROUPDATASEQ", "label": "Record identifier", "type": "integer"}, {"OID": "IT.SV.STUDYID", "name": "STUDYID", "label": "Study Identifier", "type": "string", "length": 12, "keySequence": 1}, {"OID": "IT.SV.DOMAIN", "name": "DOMAIN", "label": "Domain Abbreviation", "type": "string", "length": 2}, {"OID": "IT.SV.USUBJID", "name": "USUBJID", "label": "Unique Subject Identifier", "type": "string", "length": 11, "keySequence": 2}, {"OID": "IT.SV.VISITNUM", "name": "VISITNUM", "label": "Visit Number", "type": "float", "length": 8, "keySequence": 3}, {"OID": "IT.SV.VISIT", "name": "VISIT", "label": "Visit Name", "type": "string", "length": 19}, {"OID": "IT.SV.VISITDY", "name": "VISITDY", "label": "Planned Study Day of Visit", "type": "integer", "length": 8}, {"OID": "IT.SV.EPOCH", "name": "EPOCH", "label": "Epoch", "type": "string", "length": 9}, {"OID": "IT.SV.SVSTDTC", "name": "SVSTDTC", "label": "Start Date/Time of Visit", "type": "string", "length": 10}, {"OID": "IT.SV.SVENDTC", "name": "SVENDTC", "label": "End Date/Time of Visit", "type": "string", "length": 10}, {"OID": "IT.SV.SVSTDY", "name": "SVSTDY", "label": "Study Day of Start of Visit", "type": "integer", "length": 8}, {"OID": "IT.SV.SVENDY", "name": "SVENDY", "label": "Study Day of End of Visit", "type": "integer", "length": 8}, {"OID": "IT.SV.SVUPDES", "name": "SVUPDES", "label": "Description of Unplanned Visit", "type": "string", "length": 51}], "itemData": [[1, "CDISCPILOT01", "SV", "01-701-1015", 1.0, "SCREENING 1", -7, "SCREENING", "2013-12-26", "2013-12-26", -7, -7, ""], [2, "CDISCPILOT01", "SV", "01-701-1015", 2.0, "SCREENING 2", -1, "SCREENING", "2013-12-31", "2013-12-31", -2, -2, ""], [3, "CDISCPILOT01", "SV", "01-701-1015", 3.0, "BASELINE", 1, "TREATMENT", "2014-01-02", "2014-01-02", 1, 1, ""], [4, "CDISCPILOT01", "SV", "01-701-1015", 3.5, "AMBUL ECG PLACEMENT", 13, "TREATMENT", "2014-01-14", "2014-01-14", 13, 13, ""], [5, "CDISCPILOT01", "SV", "01-701-1015", 4.0, "WEEK 2", 14, "TREATMENT", "2014-01-16", "2014-01-16", 15, 15, ""], [6, "CDISCPILOT01", "SV", "01-701-1015", 5.0, "WEEK 4", 28, "TREATMENT", "2014-01-30", "2014-01-30", 29, 29, ""], [7, "CDISCPILOT01", "SV", "01-701-1015", 6.0, "AMBUL ECG REMOVAL", 30, "TREATMENT", "2014-02-01", "2014-02-01", 31, 31, ""], [8, "CDISCPILOT01", "SV", "01-701-1015", 7.0, "WEEK 6", 42, "TREATMENT", "2014-02-12", "2014-02-12", 42, 42, ""], [9, "CDISCPILOT01", "SV", "01-701-1015", 8.0, "WEEK 8", 56, "TREATMENT", "2014-03-05", "2014-03-05", 63, 63, ""], [10, "CDISCPILOT01", "SV", "01-701-1015", 9.0, "WEEK 12", 84, "TREATMENT", "2014-03-26", "2014-03-26", 84, 84, ""], [11, "CDISCPILOT01", "SV", "01-701-1015", 9.1, "WEEK 14 (T)", 98, "TREATMENT", "2014-04-09", "2014-04-09", 98, 98, ""], [12, "CDISCPILOT01", "SV", "01-701-1015", 10.0, "WEEK 16", 112, "TREATMENT", "2014-05-07", "2014-05-07", 126, 126, ""], [13, "CDISCPILOT01", "SV", "01-701-1015", 11.0, "WEEK 20", 140, "TREATMENT", "2014-05-21", "2014-05-21", 140, 140, ""], [14, "CDISCPILOT01", "SV", "01-701-1015", 11.1, "WEEK 22 (T)", 154, "TREATMENT", "2014-06-04", "2014-06-04", 154, 154, ""], [15, "CDISCPILOT01", "SV", "01-701-1015", 12.0, "WEEK 24", 168, "TREATMENT", "2014-06-18", "2014-06-18", 168, 168, ""], [16, "CDISCPILOT01", "SV", "01-701-1015", 13.0, "WEEK 26", 182, "TREATMENT", "2014-07-02", "2014-07-02", 182, 182, ""], [17, "CDISCPILOT01", "SV", "01-701-1023", 1.0, "SCREENING 1", -7, "SCREENING", "2012-07-22", "2012-07-22", -14, -14, ""], [18, "CDISCPILOT01", "SV", "01-701-1023", 2.0, "SCREENING 2", -1, "SCREENING", "2012-08-03", "2012-08-03", -2, -2, ""], [19, "CDISCPILOT01", "SV", "01-701-1023", 3.0, "BASELINE", 1, "TREATMENT", "2012-08-05", "2012-08-05", 1, 1, ""], [20, "CDISCPILOT01", "SV", "01-701-1023", 3.5, "AMBUL ECG PLACEMENT", 13, "TREATMENT", "2012-08-26", "2012-08-26", 22, 22, ""], [21, "CDISCPILOT01", "SV", "01-701-1023", 4.0, "WEEK 2", 14, "TREATMENT", "2012-08-27", "2012-08-27", 23, 23, ""], [22, "CDISCPILOT01", "SV", "01-701-1023", 5.0, "WEEK 4", 28, "TREATMENT", "2012-09-02", "2012-09-02", 29, 29, ""], [23, "CDISCPILOT01", "SV", "01-701-1023", 5.1, "UNSCHEDULED 5.1", null, "TREATMENT", "2013-02-18", "2013-02-18", 198, 198, "Unplanned visit to complete unscheduled assessments"], [24, "CDISCPILOT01", "SV", "01-701-1023", 101.0, "AE FOLLOW-UP", null, "TREATMENT", "2013-02-18", "2013-02-18", 198, 198, ""], [25, "CDISCPILOT01", "SV", "01-701-1023", 201.0, "RETRIEVAL", 168, "TREATMENT", "2013-02-18", "2013-02-18", 198, 198, ""], [26, "CDISCPILOT01", "SV", "01-701-1028", 1.0, "SCREENING 1", -7, "SCREENING", "2013-07-11", "2013-07-11", -8, -8, ""], [27, "CDISCPILOT01", "SV", "01-701-1028", 2.0, "SCREENING 2", -1, "SCREENING", "2013-07-17", "2013-07-17", -2, -2, ""], [28, "CDISCPILOT01", "SV", "01-701-1028", 3.0, "BASELINE", 1, "TREATMENT", "2013-07-19", "2013-07-19", 1, 1, ""], [29, "CDISCPILOT01", "SV", "01-701-1028", 3.5, "AMBUL ECG PLACEMENT", 13, "TREATMENT", "2013-07-31", "2013-07-31", 13, 13, ""], [30, "CDISCPILOT01", "SV", "01-701-1028", 4.0, "WEEK 2", 14, "TREATMENT", "2013-08-01", "2013-08-01", 14, 14, ""], [31, "CDISCPILOT01", "SV", "01-701-1028", 5.0, "WEEK 4", 28, "TREATMENT", "2013-08-14", "2013-08-14", 27, 27, ""], [32, "CDISCPILOT01", "SV", "01-701-1028", 6.0, "AMBUL ECG REMOVAL", 30, "TREATMENT", "2013-08-16", "2013-08-16", 29, 29, ""], [33, "CDISCPILOT01", "SV", "01-701-1028", 7.0, "WEEK 6", 42, "TREATMENT", "2013-08-29", "2013-08-29", 42, 42, ""], [34, "CDISCPILOT01", "SV", "01-701-1028", 8.0, "WEEK 8", 56, "TREATMENT", "2013-09-10", "2013-09-10", 54, 54, ""], [35, "CDISCPILOT01", "SV", "01-701-1028", 8.1, "WEEK 10 (T)", 70, "TREATMENT", "2013-09-24", "2013-09-24", 68, 68, ""], [36, "CDISCPILOT01", "SV", "01-701-1028", 9.0, "WEEK 12", 84, "TREATMENT", "2013-10-09", "2013-10-09", 83, 83, ""], [37, "CDISCPILOT01", "SV", "01-701-1028", 9.1, "WEEK 14 (T)", 98, "TREATMENT", "2013-10-23", "2013-10-23", 97, 97, ""], [38, "CDISCPILOT01", "SV", "01-701-1028", 10.0, "WEEK 16", 112, "TREATMENT", "2013-11-06", "2013-11-06", 111, 111, ""], [39, "CDISCPILOT01", "SV", "01-701-1028", 10.1, "WEEK 18 (T)", 126, "TREATMENT", "2013-11-20", "2013-11-20", 125, 125, ""], [40, "CDISCPILOT01", "SV", "01-701-1028", 11.0, "WEEK 20", 140, "TREATMENT", "2013-12-04", "2013-12-04", 139, 139, ""], [41, "CDISCPILOT01", "SV", "01-701-1028", 11.1, "WEEK 22 (T)", 154, "TREATMENT", "2013-12-18", "2013-12-18", 153, 153, ""], [42, "CDISCPILOT01", "SV", "01-701-1028", 12.0, "WEEK 24", 168, "TREATMENT", "2014-01-06", "2014-01-06", 172, 172, ""], [43, "CDISCPILOT01", "SV", "01-701-1028", 13.0, "WEEK 26", 182, "TREATMENT", "2014-01-14", "2014-01-14", 180, 180, ""], [44, "CDISCPILOT01", "SV", "01-701-1033", 1.0, "SCREENING 1", -7, "SCREENING", "2014-03-10", "2014-03-10", -8, -8, ""], [45, "CDISCPILOT01", "SV", "01-701-1033", 2.0, "SCREENING 2", -1, "SCREENING", "2014-03-16", "2014-03-16", -2, -2, ""], [46, "CDISCPILOT01", "SV", "01-701-1033", 3.0, "BASELINE", 1, "TREATMENT", "2014-03-18", "2014-03-18", 1, 1, ""], [47, "CDISCPILOT01", "SV", "01-701-1033", 3.5, "AMBUL ECG PLACEMENT", 13, "TREATMENT", "2014-03-31", "2014-03-31", 14, 14, ""], [48, "CDISCPILOT01", "SV", "01-701-1033", 4.0, "WEEK 2", 14, "TREATMENT", "2014-04-01", "2014-04-01", 15, 15, ""], [49, "CDISCPILOT01", "SV", "01-701-1033", 5.0, "WEEK 4", 28, "TREATMENT", "2014-04-14", "2014-04-14", 28, 28, ""], [50, "CDISCPILOT01", "SV", "01-701-1033", 201.0, "RETRIEVAL", 168, "FOLLOW-UP", "2014-09-15", "2014-09-15", 182, 182, ""], [51, "CDISCPILOT01", "SV", "01-701-1034", 1.0, "SCREENING 1", -7, "SCREENING", "2014-06-24", "2014-06-24", -7, -7, ""], [52, "CDISCPILOT01", "SV", "01-701-1034", 2.0, "SCREENING 2", -1, "SCREENING", "2014-06-29", "2014-06-29", -2, -2, ""], [53, "CDISCPILOT01", "SV", "01-701-1034", 3.0, "BASELINE", 1, "TREATMENT", "2014-07-01", "2014-07-01", 1, 1, ""], [54, "CDISCPILOT01", "SV", "01-701-1034", 4.0, "WEEK 2", 14, "TREATMENT", "2014-07-15", "2014-07-15", 15, 15, ""], [55, "CDISCPILOT01", "SV", "01-701-1034", 5.0, "WEEK 4", 28, "TREATMENT", "2014-07-29", "2014-07-29", 29, 29, ""], [56, "CDISCPILOT01", "SV", "01-701-1034", 6.0, "AMBUL ECG REMOVAL", 30, "TREATMENT", "2014-07-31", "2014-07-31", 31, 31, ""], [57, "CDISCPILOT01", "SV", "01-701-1034", 7.0, "WEEK 6", 42, "TREATMENT", "2014-08-11", "2014-08-11", 42, 42, ""], [58, "CDISCPILOT01", "SV", "01-701-1034", 8.0, "WEEK 8", 56, "TREATMENT", "2014-08-26", "2014-08-26", 57, 57, ""], [59, "CDISCPILOT01", "SV", "01-701-1034", 8.1, "WEEK 10 (T)", 70, "TREATMENT", "2014-09-09", "2014-09-09", 71, 71, ""], [60, "CDISCPILOT01", "SV", "01-701-1034", 9.0, "WEEK 12", 84, "TREATMENT", "2014-09-25", "2014-09-25", 87, 87, ""], [61, "CDISCPILOT01", "SV", "01-701-1034", 9.1, "WEEK 14 (T)", 98, "TREATMENT", "2014-10-07", "2014-10-07", 99, 99, ""], [62, "CDISCPILOT01", "SV", "01-701-1034", 10.0, "WEEK 16", 112, "TREATMENT", "2014-10-21", "2014-10-21", 113, 113, ""], [63, "CDISCPILOT01", "SV", "01-701-1034", 10.1, "WEEK 18 (T)", 126, "TREATMENT", "2014-11-04", "2014-11-04", 127, 127, ""], [64, "CDISCPILOT01", "SV", "01-701-1034", 11.0, "WEEK 20", 140, "TREATMENT", "2014-11-18", "2014-11-18", 141, 141, ""], [65, "CDISCPILOT01", "SV", "01-701-1034", 11.1, "WEEK 22 (T)", 154, "TREATMENT", "2014-12-02", "2014-12-02", 155, 155, ""], [66, "CDISCPILOT01", "SV", "01-701-1034", 12.0, "WEEK 24", 168, "TREATMENT", "2014-12-17", "2014-12-17", 170, 170, ""], [67, "CDISCPILOT01", "SV", "01-701-1034", 13.0, "WEEK 26", 182, "TREATMENT", "2014-12-30", "2014-12-30", 183, 183, ""], [68, "CDISCPILOT01", "SV", "01-701-1047", 1.0, "SCREENING 1", -7, "SCREENING", "2013-01-22", "2013-01-22", -21, -21, ""], [69, "CDISCPILOT01", "SV", "01-701-1047", 2.0, "SCREENING 2", -1, "SCREENING", "2013-02-10", "2013-02-10", -2, -2, ""], [70, "CDISCPILOT01", "SV", "01-701-1047", 3.0, "BASELINE", 1, "TREATMENT", "2013-02-12", "2013-02-12", 1, 1, ""], [71, "CDISCPILOT01", "SV", "01-701-1047", 3.5, "AMBUL ECG PLACEMENT", 13, "TREATMENT", "2013-02-24", "2013-02-24", 13, 13, ""], [72, "CDISCPILOT01", "SV", "01-701-1047", 4.0, "WEEK 2", 14, "TREATMENT", "2013-02-25", "2013-02-25", 14, 14, ""], [73, "CDISCPILOT01", "SV", "01-701-1047", 5.0, "WEEK 4", 28, "TREATMENT", "2013-03-10", "2013-03-10", 27, 27, ""], [74, "CDISCPILOT01", "SV", "01-701-1047", 6.0, "AMBUL ECG REMOVAL", 30, "TREATMENT", "2013-03-29", "2013-03-29", 46, 46, ""], [75, "CDISCPILOT01", "SV", "01-701-1047", 6.1, "UNSCHEDULED 6.1", null, "TREATMENT", "2013-04-07", "2013-04-07", 55, 55, "Unplanned visit to complete unscheduled assessments"], [76, "CDISCPILOT01", "SV", "01-701-1047", 201.0, "RETRIEVAL", 168, "FOLLOW-UP", "2013-07-28", "2013-07-28", 167, 167, ""], [77, "CDISCPILOT01", "SV", "01-701-1057", 1.0, "SCREENING 1", -7, "SCREENING", "2013-12-20", "2013-12-20", null, null, ""], [78, "CDISCPILOT01", "SV", "01-701-1097", 1.0, "SCREENING 1", -7, "SCREENING", "2013-12-23", "2013-12-23", -9, -9, ""], [79, "CDISCPILOT01", "SV", "01-701-1097", 2.0, "SCREENING 2", -1, "SCREENING", "2013-12-30", "2013-12-30", -2, -2, ""], [80, "CDISCPILOT01", "SV", "01-701-1097", 3.0, "BASELINE", 1, "TREATMENT", "2014-01-01", "2014-01-01", 1, 1, ""], [81, "CDISCPILOT01", "SV", "01-701-1097", 3.5, "AMBUL ECG PLACEMENT", 13, "TREATMENT", "2014-01-14", "2014-01-14", 14, 14, ""], [82, "CDISCPILOT01", "SV", "01-701-1097", 4.0, "WEEK 2", 14, "TREATMENT", "2014-01-15", "2014-01-15", 15, 15, ""], [83, "CDISCPILOT01", "SV", "01-701-1097", 5.0, "WEEK 4", 28, "TREATMENT", "2014-01-29", "2014-01-29", 29, 29, ""], [84, "CDISCPILOT01", "SV", "01-701-1097", 6.0, "AMBUL ECG REMOVAL", 30, "TREATMENT", "2014-02-04", "2014-02-04", 35, 35, ""], [85, "CDISCPILOT01", "SV", "01-701-1097", 7.0, "WEEK 6", 42, "TREATMENT", "2014-02-11", "2014-02-11", 42, 42, ""], [86, "CDISCPILOT01", "SV", "01-701-1097", 8.0, "WEEK 8", 56, "TREATMENT", "2014-02-26", "2014-02-26", 57, 57, ""], [87, "CDISCPILOT01", "SV", "01-701-1097", 9.0, "WEEK 12", 84, "TREATMENT", "2014-03-26", "2014-03-26", 85, 85, ""], [88, "CDISCPILOT01", "SV", "01-701-1097", 9.1, "WEEK 14 (T)", 98, "TREATMENT", "2014-04-09", "2014-04-09", 99, 99, ""], [89, "CDISCPILOT01", "SV", "01-701-1097", 10.0, "WEEK 16", 112, "TREATMENT", "2014-04-23", "2014-04-23", 113, 113, ""], [90, "CDISCPILOT01", "SV", "01-701-1097", 10.1, "WEEK 18 (T)", 126, "TREATMENT", "2014-05-07", "2014-05-07", 127, 127, ""], [91, "CDISCPILOT01", "SV", "01-701-1097", 11.0, "WEEK 20", 140, "TREATMENT", "2014-05-21", "2014-05-21", 141, 141, ""], [92, "CDISCPILOT01", "SV", "01-701-1097", 11.1, "WEEK 22 (T)", 154, "TREATMENT", "2014-06-04", "2014-06-04", 155, 155, ""], [93, "CDISCPILOT01", "SV", "01-701-1097", 12.0, "WEEK 24", 168, "TREATMENT", "2014-06-18", "2014-06-18", 169, 169, ""], [94, "CDISCPILOT01", "SV", "01-701-1097", 13.0, "WEEK 26", 182, "TREATMENT", "2014-07-09", "2014-07-09", 190, 190, ""], [95, "CDISCPILOT01", "SV", "01-701-1111", 1.0, "SCREENING 1", -7, "SCREENING", "2012-08-25", "2012-08-25", -13, -13, ""], [96, "CDISCPILOT01", "SV", "01-701-1111", 2.0, "SCREENING 2", -1, "SCREENING", "2012-09-05", "2012-09-05", -2, -2, ""], [97, "CDISCPILOT01", "SV", "01-701-1111", 3.0, "BASELINE", 1, "TREATMENT", "2012-09-07", "2012-09-07", 1, 1, ""], [98, "CDISCPILOT01", "SV", "01-701-1111", 4.0, "WEEK 2", 14, "TREATMENT", "2012-09-17", "2012-09-17", 11, 11, ""], [99, "CDISCPILOT01", "SV", "01-701-1111", 101.0, "AE FOLLOW-UP", null, "FOLLOW-UP", "2012-09-29", "2012-09-29", 23, 23, ""], [100, "CDISCPILOT01", "SV", "01-701-1111", 201.0, "RETRIEVAL", 168, "FOLLOW-UP", "2013-02-22", "2013-02-22", 169, 169, ""], [101, "CDISCPILOT01", "SV", "01-701-1115", 1.0, "SCREENING 1", -7, "SCREENING", "2012-11-23", "2012-11-23", -7, -7, ""], [102, "CDISCPILOT01", "SV", "01-701-1115", 2.0, "SCREENING 2", -1, "SCREENING", "2012-11-28", "2012-11-28", -2, -2, ""], [103, "CDISCPILOT01", "SV", "01-701-1115", 3.0, "BASELINE", 1, "TREATMENT", "2012-11-30", "2012-11-30", 1, 1, ""], [104, "CDISCPILOT01", "SV", "01-701-1115", 3.5, "AMBUL ECG PLACEMENT", 13, "TREATMENT", "2012-12-12", "2012-12-12", 13, 13, ""], [105, "CDISCPILOT01", "SV", "01-701-1115", 4.0, "WEEK 2", 14, "TREATMENT", "2012-12-13", "2012-12-13", 14, 14, ""], [106, "CDISCPILOT01", "SV", "01-701-1115", 5.0, "WEEK 4", 28, "TREATMENT", "2012-12-26", "2012-12-26", 27, 27, ""], [107, "CDISCPILOT01", "SV", "01-701-1115", 5.1, "UNSCHEDULED 5.1", null, "TREATMENT", "2012-12-28", "2012-12-28", 29, 29, "Unplanned visit to complete unscheduled assessments"], [108, "CDISCPILOT01", "SV", "01-701-1115", 6.0, "AMBUL ECG REMOVAL", 30, "TREATMENT", "2012-12-28", "2012-12-28", 29, 29, ""], [109, "CDISCPILOT01", "SV", "01-701-1115", 7.0, "WEEK 6", 42, "TREATMENT", "2013-01-10", "2013-01-10", 42, 42, ""], [110, "CDISCPILOT01", "SV", "01-701-1115", 8.0, "WEEK 8", 56, "TREATMENT", "2013-01-23", "2013-01-23", 55, 55, ""], [111, "CDISCPILOT01", "SV", "01-701-1115", 101.0, "AE FOLLOW-UP", null, "FOLLOW-UP", "2013-02-14", "2013-02-14", 77, 77, ""], [112, "CDISCPILOT01", "SV", "01-701-1115", 201.0, "RETRIEVAL", 168, "FOLLOW-UP", "2013-05-20", "2013-05-20", 172, 172, ""], [113, "CDISCPILOT01", "SV", "01-701-1118", 1.0, "SCREENING 1", -7, "SCREENING", "2014-02-27", "2014-02-27", -13, -13, ""], [114, "CDISCPILOT01", "SV", "01-701-1118", 2.0, "SCREENING 2", -1, "SCREENING", "2014-03-10", "2014-03-10", -2, -2, ""], [115, "CDISCPILOT01", "SV", "01-701-1118", 3.0, "BASELINE", 1, "TREATMENT", "2014-03-12", "2014-03-12", 1, 1, ""], [116, "CDISCPILOT01", "SV", "01-701-1118", 3.5, "AMBUL ECG PLACEMENT", 13, "TREATMENT", "2014-03-25", "2014-03-25", 14, 14, ""], [117, "CDISCPILOT01", "SV", "01-701-1118", 4.0, "WEEK 2", 14, "TREATMENT", "2014-03-26", "2014-03-26", 15, 15, ""], [118, "CDISCPILOT01", "SV", "01-701-1118", 5.0, "WEEK 4", 28, "TREATMENT", "2014-04-09", "2014-04-09", 29, 29, ""], [119, "CDISCPILOT01", "SV", "01-701-1118", 6.0, "AMBUL ECG REMOVAL", 30, "TREATMENT", "2014-04-11", "2014-04-11", 31, 31, ""], [120, "CDISCPILOT01", "SV", "01-701-1118", 7.0, "WEEK 6", 42, "TREATMENT", "2014-04-23", "2014-04-23", 43, 43, ""], [121, "CDISCPILOT01", "SV", "01-701-1118", 8.0, "WEEK 8", 56, "TREATMENT", "2014-05-08", "2014-05-08", 58, 58, ""], [122, "CDISCPILOT01", "SV", "01-701-1118", 8.1, "WEEK 10 (T)", 70, "TREATMENT", "2014-05-21", "2014-05-21", 71, 71, ""], [123, "CDISCPILOT01", "SV", "01-701-1118", 9.0, "WEEK 12", 84, "TREATMENT", "2014-06-05", "2014-06-05", 86, 86, ""], [124, "CDISCPILOT01", "SV", "01-701-1118", 9.1, "WEEK 14 (T)", 98, "TREATMENT", "2014-06-18", "2014-06-18", 99, 99, ""], [125, "CDISCPILOT01", "SV", "01-701-1118", 10.0, "WEEK 16", 112, "TREATMENT", "2014-07-02", "2014-07-02", 113, 113, ""], [126, "CDISCPILOT01", "SV", "01-701-1118", 10.1, "WEEK 18 (T)", 126, "TREATMENT", "2014-07-16", "2014-07-16", 127, 127, ""], [127, "CDISCPILOT01", "SV", "01-701-1118", 11.0, "WEEK 20", 140, "TREATMENT", "2014-07-30", "2014-07-30", 141, 141, ""], [128, "CDISCPILOT01", "SV", "01-701-1118", 11.1, "WEEK 22 (T)", 154, "TREATMENT", "2014-07-13", "2014-07-13", 124, 124, ""], [129, "CDISCPILOT01", "SV", "01-701-1118", 12.0, "WEEK 24", 168, "TREATMENT", "2014-08-27", "2014-08-27", 169, 169, ""], [130, "CDISCPILOT01", "SV", "01-701-1118", 13.0, "WEEK 26", 182, "TREATMENT", "2014-09-09", "2014-09-09", 182, 182, ""], [131, "CDISCPILOT01", "SV", "01-701-1130", 1.0, "SCREENING 1", -7, "SCREENING", "2014-02-09", "2014-02-09", -6, -6, ""], [132, "CDISCPILOT01", "SV", "01-701-1130", 2.0, "SCREENING 2", -1, "SCREENING", "2014-02-13", "2014-02-13", -2, -2, ""], [133, "CDISCPILOT01", "SV", "01-701-1130", 3.0, "BASELINE", 1, "TREATMENT", "2014-02-15", "2014-02-15", 1, 1, ""], [134, "CDISCPILOT01", "SV", "01-701-1130", 3.5, "AMBUL ECG PLACEMENT", 13, "TREATMENT", "2014-02-28", "2014-02-28", 14, 14, ""], [135, "CDISCPILOT01", "SV", "01-701-1130", 4.0, "WEEK 2", 14, "TREATMENT", "2014-03-01", "2014-03-01", 15, 15, ""], [136, "CDISCPILOT01", "SV", "01-701-1130", 5.0, "WEEK 4", 28, "TREATMENT", "2014-03-15", "2014-03-15", 29, 29, ""], [137, "CDISCPILOT01", "SV", "01-701-1130", 6.0, "AMBUL ECG REMOVAL", 30, "TREATMENT", "2014-03-17", "2014-03-17", 31, 31, ""], [138, "CDISCPILOT01", "SV", "01-701-1130", 7.0, "WEEK 6", 42, "TREATMENT", "2014-03-29", "2014-03-29", 43, 43, ""], [139, "CDISCPILOT01", "SV", "01-701-1130", 8.0, "WEEK 8", 56, "TREATMENT", "2014-04-12", "2014-04-12", 57, 57, ""], [140, "CDISCPILOT01", "SV", "01-701-1130", 8.1, "WEEK 10 (T)", 70, "TREATMENT", "2014-04-26", "2014-04-26", 71, 71, ""], [141, "CDISCPILOT01", "SV", "01-701-1130", 9.0, "WEEK 12", 84, "TREATMENT", "2014-05-16", "2014-05-16", 91, 91, ""], [142, "CDISCPILOT01", "SV", "01-701-1130", 9.1, "WEEK 14 (T)", 98, "TREATMENT", "2014-05-24", "2014-05-24", 99, 99, ""], [143, "CDISCPILOT01", "SV", "01-701-1130", 10.0, "WEEK 16", 112, "TREATMENT", "2014-06-07", "2014-06-07", 113, 113, ""], [144, "CDISCPILOT01", "SV", "01-701-1130", 10.1, "WEEK 18 (T)", 126, "TREATMENT", "2014-06-21", "2014-06-21", 127, 127, ""], [145, "CDISCPILOT01", "SV", "01-701-1130", 11.0, "WEEK 20", 140, "TREATMENT", "2014-07-02", "2014-07-02", 138, 138, ""], [146, "CDISCPILOT01", "SV", "01-701-1130", 11.1, "WEEK 22 (T)", 154, "TREATMENT", "2014-07-19", "2014-07-19", 155, 155, ""], [147, "CDISCPILOT01", "SV", "01-701-1130", 12.0, "WEEK 24", 168, "TREATMENT", "2014-08-02", "2014-08-02", 169, 169, ""], [148, "CDISCPILOT01", "SV", "01-701-1130", 13.0, "WEEK 26", 182, "TREATMENT", "2014-08-16", "2014-08-16", 183, 183, ""], [149, "CDISCPILOT01", "SV", "01-701-1133", 1.0, "SCREENING 1", -7, "SCREENING", "2012-10-23", "2012-10-23", -5, -5, ""], [150, "CDISCPILOT01", "SV", "01-701-1133", 2.0, "SCREENING 2", -1, "SCREENING", "2012-10-26", "2012-10-26", -2, -2, ""], [151, "CDISCPILOT01", "SV", "01-701-1133", 3.0, "BASELINE", 1, "TREATMENT", "2012-10-28", "2012-10-28", 1, 1, ""], [152, "CDISCPILOT01", "SV", "01-701-1133", 3.5, "AMBUL ECG PLACEMENT", 13, "TREATMENT", "2012-11-11", "2012-11-11", 15, 15, ""], [153, "CDISCPILOT01", "SV", "01-701-1133", 4.0, "WEEK 2", 14, "TREATMENT", "2012-11-12", "2012-11-12", 16, 16, ""], [154, "CDISCPILOT01", "SV", "01-701-1133", 5.0, "WEEK 4", 28, "TREATMENT", "2012-11-26", "2012-11-26", 30, 30, ""], [155, "CDISCPILOT01", "SV", "01-701-1133", 6.0, "AMBUL ECG REMOVAL", 30, "TREATMENT", "2012-11-28", "2012-11-28", 32, 32, ""], [156, "CDISCPILOT01", "SV", "01-701-1133", 7.0, "WEEK 6", 42, "TREATMENT", "2012-12-11", "2012-12-11", 45, 45, ""], [157, "CDISCPILOT01", "SV", "01-701-1133", 8.0, "WEEK 8", 56, "TREATMENT", "2012-12-24", "2012-12-24", 58, 58, ""], [158, "CDISCPILOT01", "SV", "01-701-1133", 8.1, "WEEK 10 (T)", 70, "TREATMENT", "2013-01-07", "2013-01-07", 72, 72, ""], [159, "CDISCPILOT01", "SV", "01-701-1133", 9.0, "WEEK 12", 84, "TREATMENT", "2013-01-22", "2013-01-22", 87, 87, ""], [160, "CDISCPILOT01", "SV", "01-701-1133", 9.1, "WEEK 14 (T)", 98, "TREATMENT", "2013-02-04", "2013-02-04", 100, 100, ""], [161, "CDISCPILOT01", "SV", "01-701-1133", 10.0, "WEEK 16", 112, "TREATMENT", "2013-02-18", "2013-02-18", 114, 114, ""], [162, "CDISCPILOT01", "SV", "01-701-1133", 10.1, "WEEK 18 (T)", 126, "TREATMENT", "2013-03-04", "2013-03-04", 128, 128, ""], [163, "CDISCPILOT01", "SV", "01-701-1133", 11.0, "WEEK 20", 140, "TREATMENT", "2013-03-18", "2013-03-18", 142, 142, ""], [164, "CDISCPILOT01", "SV", "01-701-1133", 11.1, "WEEK 22 (T)", 154, "TREATMENT", "2013-04-01", "2013-04-01", 156, 156, ""], [165, "CDISCPILOT01", "SV", "01-701-1133", 12.0, "WEEK 24", 168, "TREATMENT", "2013-04-18", "2013-04-18", 173, 173, ""], [166, "CDISCPILOT01", "SV", "01-701-1133", 13.0, "WEEK 26", 182, "TREATMENT", "2013-04-29", "2013-04-29", 184, 184, ""], [167, "CDISCPILOT01", "SV", "01-701-1145", 1.0, "SCREENING 1", -7, "SCREENING", "2013-09-05", "2013-09-05", null, null, ""], [168, "CDISCPILOT01", "SV", "01-701-1146", 1.0, "SCREENING 1", -7, "SCREENING", "2013-05-07", "2013-05-07", -13, -13, ""], [169, "CDISCPILOT01", "SV", "01-701-1146", 2.0, "SCREENING 2", -1, "SCREENING", "2013-05-18", "2013-05-18", -2, -2, ""], [170, "CDISCPILOT01", "SV", "01-701-1146", 3.0, "BASELINE", 1, "TREATMENT", "2013-05-20", "2013-05-20", 1, 1, ""], [171, "CDISCPILOT01", "SV", "01-701-1146", 3.5, "AMBUL ECG PLACEMENT", 13, "TREATMENT", "2013-06-02", "2013-06-02", 14, 14, ""], [172, "CDISCPILOT01", "SV", "01-701-1146", 4.0, "WEEK 2", 14, "TREATMENT", "2013-06-03", "2013-06-03", 15, 15, ""], [173, "CDISCPILOT01", "SV", "01-701-1146", 5.0, "WEEK 4", 28, "TREATMENT", "2013-06-16", "2013-06-16", 28, 28, ""], [174, "CDISCPILOT01", "SV", "01-701-1146", 6.0, "AMBUL ECG REMOVAL", 30, "TREATMENT", "2013-06-18", "2013-06-18", 30, 30, ""], [175, "CDISCPILOT01", "SV", "01-701-1146", 7.0, "WEEK 6", 42, "TREATMENT", "2013-06-30", "2013-06-30", 42, 42, ""], [176, "CDISCPILOT01", "SV", "01-701-1146", 101.0, "AE FOLLOW-UP", null, "FOLLOW-UP", "2013-07-15", "2013-07-15", 57, 57, ""], [177, "CDISCPILOT01", "SV", "01-701-1148", 1.0, "SCREENING 1", -7, "SCREENING", "2013-08-14", "2013-08-14", -9, -9, ""], [178, "CDISCPILOT01", "SV", "01-701-1148", 2.0, "SCREENING 2", -1, "SCREENING", "2013-08-21", "2013-08-21", -2, -2, ""], [179, "CDISCPILOT01", "SV", "01-701-1148", 3.0, "BASELINE", 1, "TREATMENT", "2013-08-23", "2013-08-23", 1, 1, ""], [180, "CDISCPILOT01", "SV", "01-701-1148", 3.5, "AMBUL ECG PLACEMENT", 13, "TREATMENT", "2013-09-04", "2013-09-04", 13, 13, ""], [181, "CDISCPILOT01", "SV", "01-701-1148", 4.0, "WEEK 2", 14, "TREATMENT", "2013-09-05", "2013-09-05", 14, 14, ""], [182, "CDISCPILOT01", "SV", "01-701-1148", 5.0, "WEEK 4", 28, "TREATMENT", "2013-09-19", "2013-09-19", 28, 28, ""], [183, "CDISCPILOT01", "SV", "01-701-1148", 6.0, "AMBUL ECG REMOVAL", 30, "TREATMENT", "2013-09-21", "2013-09-21", 30, 30, ""], [184, "CDISCPILOT01", "SV", "01-701-1148", 7.0, "WEEK 6", 42, "TREATMENT", "2013-10-03", "2013-10-03", 42, 42, ""], [185, "CDISCPILOT01", "SV", "01-701-1148", 8.0, "WEEK 8", 56, "TREATMENT", "2013-10-18", "2013-10-18", 57, 57, ""], [186, "CDISCPILOT01", "SV", "01-701-1148", 8.1, "WEEK 10 (T)", 70, "TREATMENT", "2013-11-01", "2013-11-01", 71, 71, ""], [187, "CDISCPILOT01", "SV", "01-701-1148", 9.0, "WEEK 12", 84, "TREATMENT", "2013-11-17", "2013-11-17", 87, 87, ""], [188, "CDISCPILOT01", "SV", "01-701-1148", 9.1, "WEEK 14 (T)", 98, "TREATMENT", "2013-11-30", "2013-11-30", 100, 100, ""], [189, "CDISCPILOT01", "SV", "01-701-1148", 10.0, "WEEK 16", 112, "TREATMENT", "2013-12-13", "2013-12-13", 113, 113, ""], [190, "CDISCPILOT01", "SV", "01-701-1148", 10.1, "WEEK 18 (T)", 126, "TREATMENT", "2013-12-27", "2013-12-27", 127, 127, ""], [191, "CDISCPILOT01", "SV", "01-701-1148", 11.0, "WEEK 20", 140, "TREATMENT", "2014-01-10", "2014-01-10", 141, 141, ""], [192, "CDISCPILOT01", "SV", "01-701-1148", 11.1, "WEEK 22 (T)", 154, "TREATMENT", "2014-01-24", "2014-01-24", 155, 155, ""], [193, "CDISCPILOT01", "SV", "01-701-1148", 12.0, "WEEK 24", 168, "TREATMENT", "2014-02-08", "2014-02-08", 170, 170, ""], [194, "CDISCPILOT01", "SV", "01-701-1148", 13.0, "WEEK 26", 182, "TREATMENT", "2014-02-20", "2014-02-20", 182, 182, ""], [195, "CDISCPILOT01", "SV", "01-701-1153", 1.0, "SCREENING 1", -7, "SCREENING", "2013-09-06", "2013-09-06", -17, -17, ""], [196, "CDISCPILOT01", "SV", "01-701-1153", 2.0, "SCREENING 2", -1, "SCREENING", "2013-09-18", "2013-09-18", -5, -5, ""], [197, "CDISCPILOT01", "SV", "01-701-1153", 3.0, "BASELINE", 1, "TREATMENT", "2013-09-23", "2013-09-23", 1, 1, ""], [198, "CDISCPILOT01", "SV", "01-701-1153", 3.5, "AMBUL ECG PLACEMENT", 13, "TREATMENT", "2013-10-07", "2013-10-07", 15, 15, ""], [199, "CDISCPILOT01", "SV", "01-701-1153", 4.0, "WEEK 2", 14, "TREATMENT", "2013-10-08", "2013-10-08", 16, 16, ""], [200, "CDISCPILOT01", "SV", "01-701-1153", 5.0, "WEEK 4", 28, "TREATMENT", "2013-10-19", "2013-10-19", 27, 27, ""], [201, "CDISCPILOT01", "SV", "01-701-1153", 5.1, "UNSCHEDULED 5.1", null, "TREATMENT", "2013-10-19", "2013-10-19", 27, 27, "Unplanned visit to complete unscheduled assessments"], [202, "CDISCPILOT01", "SV", "01-701-1153", 6.0, "AMBUL ECG REMOVAL", 30, "TREATMENT", "2013-10-28", "2013-10-28", 36, 36, ""], [203, "CDISCPILOT01", "SV", "01-701-1153", 7.0, "WEEK 6", 42, "TREATMENT", "2013-11-04", "2013-11-04", 43, 43, ""], [204, "CDISCPILOT01", "SV", "01-701-1153", 8.0, "WEEK 8", 56, "TREATMENT", "2013-11-18", "2013-11-18", 57, 57, ""], [205, "CDISCPILOT01", "SV", "01-701-1153", 8.1, "WEEK 10 (T)", 70, "TREATMENT", "2013-12-02", "2013-12-02", 71, 71, ""], [206, "CDISCPILOT01", "SV", "01-701-1153", 9.0, "WEEK 12", 84, "TREATMENT", "2013-12-16", "2013-12-16", 85, 85, ""], [207, "CDISCPILOT01", "SV", "01-701-1153", 9.1, "WEEK 14 (T)", 98, "TREATMENT", "2013-12-30", "2013-12-30", 99, 99, ""], [208, "CDISCPILOT01", "SV", "01-701-1153", 9.2, "UNSCHEDULED 9.2", null, "TREATMENT", "2014-01-08", "2014-01-08", 108, 108, "Unplanned visit to complete unscheduled assessments"], [209, "CDISCPILOT01", "SV", "01-701-1153", 9.3, "UNSCHEDULED 9.3", null, "TREATMENT", "2013-12-30", "2013-12-30", 99, 99, "Unplanned visit to complete unscheduled assessments"], [210, "CDISCPILOT01", "SV", "01-701-1153", 10.0, "WEEK 16", 112, "TREATMENT", "2014-01-08", "2014-01-08", 108, 108, ""], [211, "CDISCPILOT01", "SV", "01-701-1153", 11.0, "WEEK 20", 140, "TREATMENT", "2014-02-11", "2014-02-11", 142, 142, ""], [212, "CDISCPILOT01", "SV", "01-701-1153", 11.1, "WEEK 22 (T)", 154, "TREATMENT", "2014-02-25", "2014-02-25", 156, 156, ""], [213, "CDISCPILOT01", "SV", "01-701-1153", 12.0, "WEEK 24", 168, "TREATMENT", "2014-03-11", "2014-03-11", 170, 170, ""], [214, "CDISCPILOT01", "SV", "01-701-1153", 13.0, "WEEK 26", 182, "TREATMENT", "2014-04-01", "2014-04-01", 191, 191, ""], [215, "CDISCPILOT01", "SV", "01-701-1162", 1.0, "SCREENING 1", -7, "SCREENING", "2013-04-18", "2013-04-18", null, null, ""], [216, "CDISCPILOT01", "SV", "01-701-1176", 1.0, "SCREENING 1", -7, "SCREENING", "2012-09-30", "2012-09-30", null, null, ""], [217, "CDISCPILOT01", "SV", "01-701-1180", 1.0, "SCREENING 1", -7, "SCREENING", "2013-01-28", "2013-01-28", -15, -15, ""], [218, "CDISCPILOT01", "SV", "01-701-1180", 2.0, "SCREENING 2", -1, "SCREENING", "2013-02-10", "2013-02-10", -2, -2, ""], [219, "CDISCPILOT01", "SV", "01-701-1180", 3.0, "BASELINE", 1, "TREATMENT", "2013-02-12", "2013-02-12", 1, 1, ""], [220, "CDISCPILOT01", "SV", "01-701-1180", 3.5, "AMBUL ECG PLACEMENT", 13, "TREATMENT", "2013-02-24", "2013-02-24", 13, 13, ""], [221, "CDISCPILOT01", "SV", "01-701-1180", 4.0, "WEEK 2", 14, "TREATMENT", "2013-02-25", "2013-02-25", 14, 14, ""], [222, "CDISCPILOT01", "SV", "01-701-1180", 5.0, "WEEK 4", 28, "TREATMENT", "2013-03-11", "2013-03-11", 28, 28, ""], [223, "CDISCPILOT01", "SV", "01-701-1180", 6.0, "AMBUL ECG REMOVAL", 30, "TREATMENT", "2013-03-13", "2013-03-13", 30, 30, ""], [224, "CDISCPILOT01", "SV", "01-701-1180", 7.0, "WEEK 6", 42, "TREATMENT", "2013-03-23", "2013-03-23", 40, 40, ""], [225, "CDISCPILOT01", "SV", "01-701-1180", 101.0, "AE FOLLOW-UP", null, "FOLLOW-UP", "2013-04-07", "2013-04-07", 55, 55, ""], [226, "CDISCPILOT01", "SV", "01-701-1181", 1.0, "SCREENING 1", -7, "SCREENING", "2013-11-26", "2013-11-26", -9, -9, ""], [227, "CDISCPILOT01", "SV", "01-701-1181", 2.0, "SCREENING 2", -1, "SCREENING", "2013-12-03", "2013-12-03", -2, -2, ""], [228, "CDISCPILOT01", "SV", "01-701-1181", 3.0, "BASELINE", 1, "TREATMENT", "2013-12-05", "2013-12-05", 1, 1, ""], [229, "CDISCPILOT01", "SV", "01-701-1181", 4.0, "WEEK 2", 14, "TREATMENT", "2013-12-12", "2013-12-12", 8, 8, ""], [230, "CDISCPILOT01", "SV", "01-701-1181", 101.0, "AE FOLLOW-UP", null, "FOLLOW-UP", "2013-12-20", "2013-12-20", 16, 16, ""], [231, "CDISCPILOT01", "SV", "01-701-1181", 201.0, "RETRIEVAL", 168, "FOLLOW-UP", "2014-05-23", "2014-05-23", 170, 170, ""], [232, "CDISCPILOT01", "SV", "01-701-1188", 1.0, "SCREENING 1", -7, "SCREENING", "2013-02-03", "2013-02-03", -12, -12, ""], [233, "CDISCPILOT01", "SV", "01-701-1188", 2.0, "SCREENING 2", -1, "SCREENING", "2013-02-10", "2013-02-10", -5, -5, ""], [234, "CDISCPILOT01", "SV", "01-701-1188", 3.0, "BASELINE", 1, "TREATMENT", "2013-02-15", "2013-02-15", 1, 1, ""], [235, "CDISCPILOT01", "SV", "01-701-1188", 3.5, "AMBUL ECG PLACEMENT", 13, "TREATMENT", "2013-03-01", "2013-03-01", 15, 15, ""], [236, "CDISCPILOT01", "SV", "01-701-1188", 4.0, "WEEK 2", 14, "TREATMENT", "2013-03-02", "2013-03-02", 16, 16, ""], [237, "CDISCPILOT01", "SV", "01-701-1188", 5.0, "WEEK 4", 28, "TREATMENT", "2013-03-16", "2013-03-16", 30, 30, ""], [238, "CDISCPILOT01", "SV", "01-701-1188", 6.0, "AMBUL ECG REMOVAL", 30, "TREATMENT", "2013-03-18", "2013-03-18", 32, 32, ""], [239, "CDISCPILOT01", "SV", "01-701-1188", 7.0, "WEEK 6", 42, "TREATMENT", "2013-03-25", "2013-03-25", 39, 39, ""], [240, "CDISCPILOT01", "SV", "01-701-1188", 101.0, "AE FOLLOW-UP", null, "FOLLOW-UP", "2013-06-01", "2013-06-01", 107, 107, ""], [241, "CDISCPILOT01", "SV", "01-701-1188", 201.0, "RETRIEVAL", 168, "FOLLOW-UP", "2013-08-04", "2013-08-04", 171, 171, ""], [242, "CDISCPILOT01", "SV", "01-701-1192", 1.0, "SCREENING 1", -7, "SCREENING", "2012-07-08", "2012-07-08", -14, -14, ""], [243, "CDISCPILOT01", "SV", "01-701-1192", 2.0, "SCREENING 2", -1, "SCREENING", "2012-07-20", "2012-07-20", -2, -2, ""], [244, "CDISCPILOT01", "SV", "01-701-1192", 3.0, "BASELINE", 1, "TREATMENT", "2012-07-22", "2012-07-22", 1, 1, ""], [245, "CDISCPILOT01", "SV", "01-701-1192", 3.5, "AMBUL ECG PLACEMENT", 13, "TREATMENT", "2012-08-04", "2012-08-04", 14, 14, ""], [246, "CDISCPILOT01", "SV", "01-701-1192", 4.0, "WEEK 2", 14, "TREATMENT", "2012-08-07", "2012-08-07", 17, 17, ""], [247, "CDISCPILOT01", "SV", "01-701-1192", 5.0, "WEEK 4", 28, "TREATMENT", "2012-08-21", "2012-08-21", 31, 31, ""], [248, "CDISCPILOT01", "SV", "01-701-1192", 5.1, "UNSCHEDULED 5.1", null, "TREATMENT", "2012-08-21", "2012-08-21", 31, 31, "Unplanned visit to complete unscheduled assessments"], [249, "CDISCPILOT01", "SV", "01-701-1192", 6.0, "AMBUL ECG REMOVAL", 30, "TREATMENT", "2012-08-23", "2012-08-23", 33, 33, ""], [250, "CDISCPILOT01", "SV", "01-701-1192", 7.0, "WEEK 6", 42, "TREATMENT", "2012-09-04", "2012-09-04", 45, 45, ""], [251, "CDISCPILOT01", "SV", "01-701-1192", 8.0, "WEEK 8", 56, "TREATMENT", "2012-09-23", "2012-09-23", 64, 64, ""], [252, "CDISCPILOT01", "SV", "01-701-1192", 8.1, "WEEK 10 (T)", 70, "TREATMENT", "2012-09-30", "2012-09-30", 71, 71, ""], [253, "CDISCPILOT01", "SV", "01-701-1192", 9.0, "WEEK 12", 84, "TREATMENT", "2012-10-14", "2012-10-14", 85, 85, ""], [254, "CDISCPILOT01", "SV", "01-701-1192", 9.1, "WEEK 14 (T)", 98, "TREATMENT", "2012-10-29", "2012-10-29", 100, 100, ""], [255, "CDISCPILOT01", "SV", "01-701-1192", 10.0, "WEEK 16", 112, "TREATMENT", "2012-11-15", "2012-11-15", 117, 117, ""], [256, "CDISCPILOT01", "SV", "01-701-1192", 10.1, "WEEK 18 (T)", 126, "TREATMENT", "2012-11-26", "2012-11-26", 128, 128, ""], [257, "CDISCPILOT01", "SV", "01-701-1192", 11.0, "WEEK 20", 140, "TREATMENT", "2012-12-13", "2012-12-13", 145, 145, ""], [258, "CDISCPILOT01", "SV", "01-701-1192", 11.1, "WEEK 22 (T)", 154, "TREATMENT", "2012-12-27", "2012-12-27", 159, 159, ""], [259, "CDISCPILOT01", "SV", "01-701-1192", 12.0, "WEEK 24", 168, "TREATMENT", "2013-01-11", "2013-01-11", 174, 174, ""], [260, "CDISCPILOT01", "SV", "01-701-1192", 13.0, "WEEK 26", 182, "TREATMENT", "2013-01-20", "2013-01-20", 183, 183, ""], [261, "CDISCPILOT01", "SV", "01-701-1203", 1.0, "SCREENING 1", -7, "SCREENING", "2013-01-25", "2013-01-25", -8, -8, ""], [262, "CDISCPILOT01", "SV", "01-701-1203", 2.0, "SCREENING 2", -1, "SCREENING", "2013-02-01", "2013-02-01", -1, -1, ""], [263, "CDISCPILOT01", "SV", "01-701-1203", 3.0, "BASELINE", 1, "TREATMENT", "2013-02-02", "2013-02-02", 1, 1, ""], [264, "CDISCPILOT01", "SV", "01-701-1203", 4.0, "WEEK 2", 14, "TREATMENT", "2013-02-23", "2013-02-23", 22, 22, ""], [265, "CDISCPILOT01", "SV", "01-701-1203", 5.0, "WEEK 4", 28, "TREATMENT", "2013-03-02", "2013-03-02", 29, 29, ""], [266, "CDISCPILOT01", "SV", "01-701-1203", 6.0, "AMBUL ECG REMOVAL", 30, "TREATMENT", "2013-03-04", "2013-03-04", 31, 31, ""], [267, "CDISCPILOT01", "SV", "01-701-1203", 7.0, "WEEK 6", 42, "TREATMENT", "2013-03-16", "2013-03-16", 43, 43, ""], [268, "CDISCPILOT01", "SV", "01-701-1203", 8.0, "WEEK 8", 56, "TREATMENT", "2013-03-30", "2013-03-30", 57, 57, ""], [269, "CDISCPILOT01", "SV", "01-701-1203", 8.1, "WEEK 10 (T)", 70, "TREATMENT", "2013-04-13", "2013-04-13", 71, 71, ""], [270, "CDISCPILOT01", "SV", "01-701-1203", 9.0, "WEEK 12", 84, "TREATMENT", "2013-05-09", "2013-05-09", 97, 97, ""], [271, "CDISCPILOT01", "SV", "01-701-1203", 9.1, "WEEK 14 (T)", 98, "TREATMENT", "2013-05-11", "2013-05-11", 99, 99, ""], [272, "CDISCPILOT01", "SV", "01-701-1203", 10.0, "WEEK 16", 112, "TREATMENT", "2013-05-25", "2013-05-25", 113, 113, ""], [273, "CDISCPILOT01", "SV", "01-701-1203", 10.1, "WEEK 18 (T)", 126, "TREATMENT", "2013-06-08", "2013-06-08", 127, 127, ""], [274, "CDISCPILOT01", "SV", "01-701-1203", 11.0, "WEEK 20", 140, "TREATMENT", "2013-06-22", "2013-06-22", 141, 141, ""], [275, "CDISCPILOT01", "SV", "01-701-1203", 11.1, "WEEK 22 (T)", 154, "TREATMENT", "2013-07-07", "2013-07-07", 156, 156, ""], [276, "CDISCPILOT01", "SV", "01-701-1203", 12.0, "WEEK 24", 168, "TREATMENT", "2013-07-22", "2013-07-22", 171, 171, ""], [277, "CDISCPILOT01", "SV", "01-701-1203", 13.0, "WEEK 26", 182, "TREATMENT", "2013-08-03", "2013-08-03", 183, 183, ""], [278, "CDISCPILOT01", "SV", "01-701-1211", 1.0, "SCREENING 1", -7, "SCREENING", "2012-10-30", "2012-10-30", -16, -16, ""], [279, "CDISCPILOT01", "SV", "01-701-1211", 2.0, "SCREENING 2", -1, "SCREENING", "2012-11-14", "2012-11-14", -1, -1, ""], [280, "CDISCPILOT01", "SV", "01-701-1211", 3.0, "BASELINE", 1, "TREATMENT", "2012-11-15", "2012-11-15", 1, 1, ""], [281, "CDISCPILOT01", "SV", "01-701-1211", 3.5, "AMBUL ECG PLACEMENT", 13, "TREATMENT", "2012-11-27", "2012-11-27", 13, 13, ""], [282, "CDISCPILOT01", "SV", "01-701-1211", 4.0, "WEEK 2", 14, "TREATMENT", "2012-11-28", "2012-11-28", 14, 14, ""], [283, "CDISCPILOT01", "SV", "01-701-1211", 5.0, "WEEK 4", 28, "TREATMENT", "2012-12-11", "2012-12-11", 27, 27, ""], [284, "CDISCPILOT01", "SV", "01-701-1211", 6.0, "AMBUL ECG REMOVAL", 30, "TREATMENT", "2012-12-13", "2012-12-13", 29, 29, ""], [285, "CDISCPILOT01", "SV", "01-701-1211", 7.0, "WEEK 6", 42, "TREATMENT", "2012-12-25", "2012-12-25", 41, 41, ""], [286, "CDISCPILOT01", "SV", "01-701-1211", 8.0, "WEEK 8", 56, "TREATMENT", "2013-01-08", "2013-01-08", 55, 55, ""], [287, "CDISCPILOT01", "SV", "01-701-1211", 9.0, "WEEK 12", 84, "TREATMENT", "2013-01-14", "2013-01-14", 61, 61, ""], [288, "CDISCPILOT01", "SV", "01-701-1234", 1.0, "SCREENING 1", -7, "SCREENING", "2013-03-20", "2013-03-20", -10, -10, ""], [289, "CDISCPILOT01", "SV", "01-701-1234", 2.0, "SCREENING 2", -1, "SCREENING", "2013-03-28", "2013-03-28", -2, -2, ""], [290, "CDISCPILOT01", "SV", "01-701-1234", 3.0, "BASELINE", 1, "TREATMENT", "2013-03-30", "2013-03-30", 1, 1, ""], [291, "CDISCPILOT01", "SV", "01-701-1234", 3.5, "AMBUL ECG PLACEMENT", 13, "TREATMENT", "2013-04-20", "2013-04-20", 22, 22, ""], [292, "CDISCPILOT01", "SV", "01-701-1234", 4.0, "WEEK 2", 14, "TREATMENT", "2013-04-21", "2013-04-21", 23, 23, ""], [293, "CDISCPILOT01", "SV", "01-701-1234", 5.0, "WEEK 4", 28, "TREATMENT", "2013-04-28", "2013-04-28", 30, 30, ""], [294, "CDISCPILOT01", "SV", "01-701-1234", 6.0, "AMBUL ECG REMOVAL", 30, "TREATMENT", "2013-04-30", "2013-04-30", 32, 32, ""], [295, "CDISCPILOT01", "SV", "01-701-1234", 7.0, "WEEK 6", 42, "TREATMENT", "2013-05-08", "2013-05-08", 40, 40, ""], [296, "CDISCPILOT01", "SV", "01-701-1234", 8.0, "WEEK 8", 56, "TREATMENT", "2013-05-26", "2013-05-26", 58, 58, ""], [297, "CDISCPILOT01", "SV", "01-701-1234", 8.1, "WEEK 10 (T)", 70, "TREATMENT", "2013-06-09", "2013-06-09", 72, 72, ""], [298, "CDISCPILOT01", "SV", "01-701-1234", 9.0, "WEEK 12", 84, "TREATMENT", "2013-07-07", "2013-07-07", 100, 100, ""], [299, "CDISCPILOT01", "SV", "01-701-1234", 10.0, "WEEK 16", 112, "TREATMENT", "2013-07-27", "2013-07-27", 120, 120, ""], [300, "CDISCPILOT01", "SV", "01-701-1234", 10.1, "WEEK 18 (T)", 126, "TREATMENT", "2013-08-10", "2013-08-10", 134, 134, ""], [301, "CDISCPILOT01", "SV", "01-701-1234", 11.0, "WEEK 20", 140, "TREATMENT", "2013-08-18", "2013-08-18", 142, 142, ""], [302, "CDISCPILOT01", "SV", "01-701-1234", 11.1, "WEEK 22 (T)", 154, "TREATMENT", "2013-09-01", "2013-09-01", 156, 156, ""], [303, "CDISCPILOT01", "SV", "01-701-1234", 12.0, "WEEK 24", 168, "TREATMENT", "2013-09-10", "2013-09-10", 165, 165, ""], [304, "CDISCPILOT01", "SV", "01-701-1234", 13.0, "WEEK 26", 182, "TREATMENT", "2013-09-22", "2013-09-22", 177, 177, ""], [305, "CDISCPILOT01", "SV", "01-701-1239", 1.0, "SCREENING 1", -7, "SCREENING", "2013-12-28", "2013-12-28", -14, -14, ""], [306, "CDISCPILOT01", "SV", "01-701-1239", 1.1, "UNSCHEDULED 1.1", null, "SCREENING", "2014-01-06", "2014-01-06", -5, -5, "Unplanned visit to complete unscheduled assessments"], [307, "CDISCPILOT01", "SV", "01-701-1239", 2.0, "SCREENING 2", -1, "SCREENING", "2014-01-09", "2014-01-09", -2, -2, ""], [308, "CDISCPILOT01", "SV", "01-701-1239", 3.0, "BASELINE", 1, "TREATMENT", "2014-01-11", "2014-01-11", 1, 1, ""], [309, "CDISCPILOT01", "SV", "01-701-1239", 3.5, "AMBUL ECG PLACEMENT", 13, "TREATMENT", "2014-01-24", "2014-01-24", 14, 14, ""], [310, "CDISCPILOT01", "SV", "01-701-1239", 4.0, "WEEK 2", 14, "TREATMENT", "2014-01-25", "2014-01-25", 15, 15, ""], [311, "CDISCPILOT01", "SV", "01-701-1239", 5.0, "WEEK 4", 28, "TREATMENT", "2014-02-08", "2014-02-08", 29, 29, ""], [312, "CDISCPILOT01", "SV", "01-701-1239", 6.0, "AMBUL ECG REMOVAL", 30, "TREATMENT", "2014-02-10", "2014-02-10", 31, 31, ""], [313, "CDISCPILOT01", "SV", "01-701-1239", 7.0, "WEEK 6", 42, "TREATMENT", "2014-02-19", "2014-02-19", 40, 40, ""], [314, "CDISCPILOT01", "SV", "01-701-1239", 8.0, "WEEK 8", 56, "TREATMENT", "2014-03-06", "2014-03-06", 55, 55, ""], [315, "CDISCPILOT01", "SV", "01-701-1239", 8.1, "WEEK 10 (T)", 70, "TREATMENT", "2014-03-19", "2014-03-19", 68, 68, ""], [316, "CDISCPILOT01", "SV", "01-701-1239", 9.0, "WEEK 12", 84, "TREATMENT", "2014-04-02", "2014-04-02", 82, 82, ""], [317, "CDISCPILOT01", "SV", "01-701-1239", 9.1, "WEEK 14 (T)", 98, "TREATMENT", "2014-04-16", "2014-04-16", 96, 96, ""], [318, "CDISCPILOT01", "SV", "01-701-1239", 10.0, "WEEK 16", 112, "TREATMENT", "2014-05-02", "2014-05-02", 112, 112, ""], [319, "CDISCPILOT01", "SV", "01-701-1239", 10.1, "WEEK 18 (T)", 126, "TREATMENT", "2014-05-14", "2014-05-14", 124, 124, ""], [320, "CDISCPILOT01", "SV", "01-701-1239", 11.0, "WEEK 20", 140, "TREATMENT", "2014-05-28", "2014-05-28", 138, 138, ""], [321, "CDISCPILOT01", "SV", "01-701-1239", 11.1, "WEEK 22 (T)", 154, "TREATMENT", "2014-06-11", "2014-06-11", 152, 152, ""], [322, "CDISCPILOT01", "SV", "01-701-1239", 12.0, "WEEK 24", 168, "TREATMENT", "2014-06-27", "2014-06-27", 168, 168, ""], [323, "CDISCPILOT01", "SV", "01-701-1239", 13.0, "WEEK 26", 182, "TREATMENT", "2014-07-11", "2014-07-11", 182, 182, ""], [324, "CDISCPILOT01", "SV", "01-701-1240", 1.0, "SCREENING 1", -7, "SCREENING", "2013-09-22", "2013-09-22", null, null, ""], [325, "CDISCPILOT01", "SV", "01-701-1275", 1.0, "SCREENING 1", -7, "SCREENING", "2014-01-25", "2014-01-25", -13, -13, ""], [326, "CDISCPILOT01", "SV", "01-701-1275", 2.0, "SCREENING 2", -1, "SCREENING", "2014-02-05", "2014-02-05", -2, -2, ""], [327, "CDISCPILOT01", "SV", "01-701-1275", 3.0, "BASELINE", 1, "TREATMENT", "2014-02-07", "2014-02-07", 1, 1, ""], [328, "CDISCPILOT01", "SV", "01-701-1275", 3.5, "AMBUL ECG PLACEMENT", 13, "TREATMENT", "2014-02-21", "2014-02-21", 15, 15, ""], [329, "CDISCPILOT01", "SV", "01-701-1275", 4.0, "WEEK 2", 14, "TREATMENT", "2014-02-22", "2014-02-22", 16, 16, ""], [330, "CDISCPILOT01", "SV", "01-701-1275", 5.0, "WEEK 4", 28, "TREATMENT", "2014-03-07", "2014-03-07", 29, 29, ""], [331, "CDISCPILOT01", "SV", "01-701-1275", 6.0, "AMBUL ECG REMOVAL", 30, "TREATMENT", "2014-03-08", "2014-03-08", 30, 30, ""], [332, "CDISCPILOT01", "SV", "01-701-1275", 7.0, "WEEK 6", 42, "TREATMENT", "2014-03-22", "2014-03-22", 44, 44, ""], [333, "CDISCPILOT01", "SV", "01-701-1275", 8.0, "WEEK 8", 56, "TREATMENT", "2014-04-05", "2014-04-05", 58, 58, ""], [334, "CDISCPILOT01", "SV", "01-701-1275", 8.1, "WEEK 10 (T)", 70, "TREATMENT", "2014-04-19", "2014-04-19", 72, 72, ""], [335, "CDISCPILOT01", "SV", "01-701-1275", 9.0, "WEEK 12", 84, "TREATMENT", "2014-05-03", "2014-05-03", 86, 86, ""], [336, "CDISCPILOT01", "SV", "01-701-1275", 9.1, "WEEK 14 (T)", 98, "TREATMENT", "2014-05-17", "2014-05-17", 100, 100, ""], [337, "CDISCPILOT01", "SV", "01-701-1275", 10.0, "WEEK 16", 112, "TREATMENT", "2014-06-14", "2014-06-14", 128, 128, ""], [338, "CDISCPILOT01", "SV", "01-701-1287", 1.0, "SCREENING 1", -7, "SCREENING", "2014-01-17", "2014-01-17", -8, -8, ""], [339, "CDISCPILOT01", "SV", "01-701-1287", 2.0, "SCREENING 2", -1, "SCREENING", "2014-01-23", "2014-01-23", -2, -2, ""], [340, "CDISCPILOT01", "SV", "01-701-1287", 3.0, "BASELINE", 1, "TREATMENT", "2014-01-25", "2014-01-25", 1, 1, ""], [341, "CDISCPILOT01", "SV", "01-701-1287", 4.0, "WEEK 2", 14, "TREATMENT", "2014-02-11", "2014-02-11", 18, 18, ""], [342, "CDISCPILOT01", "SV", "01-701-1287", 5.0, "WEEK 4", 28, "TREATMENT", "2014-02-20", "2014-02-20", 27, 27, ""], [343, "CDISCPILOT01", "SV", "01-701-1287", 6.0, "AMBUL ECG REMOVAL", 30, "TREATMENT", "2014-02-22", "2014-02-22", 29, 29, ""], [344, "CDISCPILOT01", "SV", "01-701-1287", 7.0, "WEEK 6", 42, "TREATMENT", "2014-03-06", "2014-03-06", 41, 41, ""], [345, "CDISCPILOT01", "SV", "01-701-1287", 8.0, "WEEK 8", 56, "TREATMENT", "2014-03-21", "2014-03-21", 56, 56, ""], [346, "CDISCPILOT01", "SV", "01-701-1287", 8.1, "WEEK 10 (T)", 70, "TREATMENT", "2014-04-03", "2014-04-03", 69, 69, ""], [347, "CDISCPILOT01", "SV", "01-701-1287", 9.0, "WEEK 12", 84, "TREATMENT", "2014-04-17", "2014-04-17", 83, 83, ""], [348, "CDISCPILOT01", "SV", "01-701-1287", 9.1, "WEEK 14 (T)", 98, "TREATMENT", "2014-05-01", "2014-05-01", 97, 97, ""], [349, "CDISCPILOT01", "SV", "01-701-1287", 10.0, "WEEK 16", 112, "TREATMENT", "2014-05-15", "2014-05-15", 111, 111, ""], [350, "CDISCPILOT01", "SV", "01-701-1287", 10.1, "WEEK 18 (T)", 126, "TREATMENT", "2014-05-29", "2014-05-29", 125, 125, ""], [351, "CDISCPILOT01", "SV", "01-701-1287", 11.0, "WEEK 20", 140, "TREATMENT", "2014-06-12", "2014-06-12", 139, 139, ""], [352, "CDISCPILOT01", "SV", "01-701-1287", 11.1, "WEEK 22 (T)", 154, "TREATMENT", "2014-06-26", "2014-06-26", 153, 153, ""], [353, "CDISCPILOT01", "SV", "01-701-1287", 12.0, "WEEK 24", 168, "TREATMENT", "2014-07-12", "2014-07-12", 169, 169, ""], [354, "CDISCPILOT01", "SV", "01-701-1287", 13.0, "WEEK 26", 182, "TREATMENT", "2014-07-26", "2014-07-26", 183, 183, ""], [355, "CDISCPILOT01", "SV", "01-701-1294", 1.0, "SCREENING 1", -7, "SCREENING", "2013-03-17", "2013-03-17", -7, -7, ""], [356, "CDISCPILOT01", "SV", "01-701-1294", 2.0, "SCREENING 2", -1, "SCREENING", "2013-03-22", "2013-03-22", -2, -2, ""], [357, "CDISCPILOT01", "SV", "01-701-1294", 3.0, "BASELINE", 1, "TREATMENT", "2013-03-24", "2013-03-24", 1, 1, ""], [358, "CDISCPILOT01", "SV", "01-701-1294", 3.5, "AMBUL ECG PLACEMENT", 13, "TREATMENT", "2013-04-09", "2013-04-09", 17, 17, ""], [359, "CDISCPILOT01", "SV", "01-701-1294", 4.0, "WEEK 2", 14, "TREATMENT", "2013-04-10", "2013-04-10", 18, 18, ""], [360, "CDISCPILOT01", "SV", "01-701-1294", 5.0, "WEEK 4", 28, "TREATMENT", "2013-04-24", "2013-04-24", 32, 32, ""], [361, "CDISCPILOT01", "SV", "01-701-1294", 6.0, "AMBUL ECG REMOVAL", 30, "TREATMENT", "2013-04-26", "2013-04-26", 34, 34, ""], [362, "CDISCPILOT01", "SV", "01-701-1294", 7.0, "WEEK 6", 42, "TREATMENT", "2013-05-08", "2013-05-08", 46, 46, ""], [363, "CDISCPILOT01", "SV", "01-701-1294", 8.0, "WEEK 8", 56, "TREATMENT", "2013-05-22", "2013-05-22", 60, 60, ""], [364, "CDISCPILOT01", "SV", "01-701-1294", 8.1, "WEEK 10 (T)", 70, "TREATMENT", "2013-06-05", "2013-06-05", 74, 74, ""], [365, "CDISCPILOT01", "SV", "01-701-1294", 9.0, "WEEK 12", 84, "TREATMENT", "2013-06-14", "2013-06-14", 83, 83, ""], [366, "CDISCPILOT01", "SV", "01-701-1294", 101.0, "AE FOLLOW-UP", null, "FOLLOW-UP", "2013-08-23", "2013-08-23", 153, 153, ""], [367, "CDISCPILOT01", "SV", "01-701-1294", 201.0, "RETRIEVAL", 168, "FOLLOW-UP", "2013-10-08", "2013-10-08", 199, 199, ""], [368, "CDISCPILOT01", "SV", "01-701-1302", 1.0, "SCREENING 1", -7, "SCREENING", "2013-08-20", "2013-08-20", -9, -9, ""], [369, "CDISCPILOT01", "SV", "01-701-1302", 2.0, "SCREENING 2", -1, "SCREENING", "2013-08-27", "2013-08-27", -2, -2, ""], [370, "CDISCPILOT01", "SV", "01-701-1302", 3.0, "BASELINE", 1, "TREATMENT", "2013-08-29", "2013-08-29", 1, 1, ""], [371, "CDISCPILOT01", "SV", "01-701-1302", 3.5, "AMBUL ECG PLACEMENT", 13, "TREATMENT", "2013-09-09", "2013-09-09", 12, 12, ""], [372, "CDISCPILOT01", "SV", "01-701-1302", 4.0, "WEEK 2", 14, "TREATMENT", "2013-09-15", "2013-09-15", 18, 18, ""], [373, "CDISCPILOT01", "SV", "01-701-1302", 5.0, "WEEK 4", 28, "TREATMENT", "2013-09-24", "2013-09-24", 27, 27, ""], [374, "CDISCPILOT01", "SV", "01-701-1302", 6.0, "AMBUL ECG REMOVAL", 30, "TREATMENT", "2013-09-26", "2013-09-26", 29, 29, ""], [375, "CDISCPILOT01", "SV", "01-701-1302", 7.0, "WEEK 6", 42, "TREATMENT", "2013-10-08", "2013-10-08", 41, 41, ""], [376, "CDISCPILOT01", "SV", "01-701-1302", 8.0, "WEEK 8", 56, "TREATMENT", "2013-10-22", "2013-10-22", 55, 55, ""], [377, "CDISCPILOT01", "SV", "01-701-1302", 9.0, "WEEK 12", 84, "TREATMENT", "2013-11-05", "2013-11-05", 69, 69, ""], [378, "CDISCPILOT01", "SV", "01-701-1302", 101.0, "AE FOLLOW-UP", null, "FOLLOW-UP", "2013-12-16", "2013-12-16", 110, 110, ""], [379, "CDISCPILOT01", "SV", "01-701-1302", 201.0, "RETRIEVAL", 168, "FOLLOW-UP", "2014-02-13", "2014-02-13", 169, 169, ""], [380, "CDISCPILOT01", "SV", "01-701-1307", 1.0, "SCREENING 1", -7, "SCREENING", "2013-12-08", "2013-12-08", null, null, ""], [381, "CDISCPILOT01", "SV", "01-701-1317", 1.0, "SCREENING 1", -7, "SCREENING", "2014-05-10", "2014-05-10", -12, -12, ""], [382, "CDISCPILOT01", "SV", "01-701-1317", 1.1, "UNSCHEDULED 1.1", null, "SCREENING", "2014-05-10", "2014-05-10", -12, -12, "Unplanned visit to complete unscheduled assessments"], [383, "CDISCPILOT01", "SV", "01-701-1317", 2.0, "SCREENING 2", -1, "SCREENING", "2014-05-20", "2014-05-20", -2, -2, ""], [384, "CDISCPILOT01", "SV", "01-701-1317", 3.0, "BASELINE", 1, "TREATMENT", "2014-05-22", "2014-05-22", 1, 1, ""], [385, "CDISCPILOT01", "SV", "01-701-1317", 3.5, "AMBUL ECG PLACEMENT", 13, "TREATMENT", "2014-06-04", "2014-06-04", 14, 14, ""], [386, "CDISCPILOT01", "SV", "01-701-1317", 4.0, "WEEK 2", 14, "TREATMENT", "2014-06-05", "2014-06-05", 15, 15, ""], [387, "CDISCPILOT01", "SV", "01-701-1317", 5.0, "WEEK 4", 28, "TREATMENT", "2014-06-19", "2014-06-19", 29, 29, ""], [388, "CDISCPILOT01", "SV", "01-701-1317", 6.0, "AMBUL ECG REMOVAL", 30, "TREATMENT", "2014-06-21", "2014-06-21", 31, 31, ""], [389, "CDISCPILOT01", "SV", "01-701-1317", 7.0, "WEEK 6", 42, "TREATMENT", "2014-07-03", "2014-07-03", 43, 43, ""], [390, "CDISCPILOT01", "SV", "01-701-1317", 8.0, "WEEK 8", 56, "TREATMENT", "2014-07-22", "2014-07-22", 62, 62, ""], [391, "CDISCPILOT01", "SV", "01-701-1317", 8.1, "WEEK 10 (T)", 70, "TREATMENT", "2014-07-30", "2014-07-30", 70, 70, ""], [392, "CDISCPILOT01", "SV", "01-701-1317", 9.0, "WEEK 12", 84, "TREATMENT", "2014-08-15", "2014-08-15", 86, 86, ""], [393, "CDISCPILOT01", "SV", "01-701-1317", 9.1, "WEEK 14 (T)", 98, "TREATMENT", "2014-08-28", "2014-08-28", 99, 99, ""], [394, "CDISCPILOT01", "SV", "01-701-1317", 10.0, "WEEK 16", 112, "TREATMENT", "2014-09-11", "2014-09-11", 113, 113, ""], [395, "CDISCPILOT01", "SV", "01-701-1317", 10.1, "WEEK 18 (T)", 126, "TREATMENT", "2014-09-25", "2014-09-25", 127, 127, ""], [396, "CDISCPILOT01", "SV", "01-701-1317", 11.0, "WEEK 20", 140, "TREATMENT", "2014-10-09", "2014-10-09", 141, 141, ""], [397, "CDISCPILOT01", "SV", "01-701-1317", 11.1, "WEEK 22 (T)", 154, "TREATMENT", "2014-10-23", "2014-10-23", 155, 155, ""], [398, "CDISCPILOT01", "SV", "01-701-1317", 12.0, "WEEK 24", 168, "TREATMENT", "2014-11-06", "2014-11-06", 169, 169, ""], [399, "CDISCPILOT01", "SV", "01-701-1317", 13.0, "WEEK 26", 182, "TREATMENT", "2014-11-20", "2014-11-20", 183, 183, ""], [400, "CDISCPILOT01", "SV", "01-701-1324", 1.0, "SCREENING 1", -7, "SCREENING", "2012-09-16", "2012-09-16", -16, -16, ""], [401, "CDISCPILOT01", "SV", "01-701-1324", 1.1, "UNSCHEDULED 1.1", null, "SCREENING", "2012-09-25", "2012-09-25", -7, -7, "Unplanned visit to complete unscheduled assessments"], [402, "CDISCPILOT01", "SV", "01-701-1324", 2.0, "SCREENING 2", -1, "SCREENING", "2012-09-25", "2012-09-25", -7, -7, ""], [403, "CDISCPILOT01", "SV", "01-701-1324", 3.0, "BASELINE", 1, "TREATMENT", "2012-10-02", "2012-10-02", 1, 1, ""], [404, "CDISCPILOT01", "SV", "01-701-1324", 3.5, "AMBUL ECG PLACEMENT", 13, "TREATMENT", "2012-10-15", "2012-10-15", 14, 14, ""], [405, "CDISCPILOT01", "SV", "01-701-1324", 4.0, "WEEK 2", 14, "TREATMENT", "2012-10-16", "2012-10-16", 15, 15, ""], [406, "CDISCPILOT01", "SV", "01-701-1324", 4.1, "UNSCHEDULED 4.1", null, "TREATMENT", "2012-10-25", "2012-10-25", 24, 24, "Unplanned visit to complete unscheduled assessments"], [407, "CDISCPILOT01", "SV", "01-701-1324", 5.0, "WEEK 4", 28, "TREATMENT", "2012-10-30", "2012-10-30", 29, 29, ""], [408, "CDISCPILOT01", "SV", "01-701-1324", 6.0, "AMBUL ECG REMOVAL", 30, "TREATMENT", "2012-11-01", "2012-11-01", 31, 31, ""], [409, "CDISCPILOT01", "SV", "01-701-1324", 7.0, "WEEK 6", 42, "TREATMENT", "2012-11-13", "2012-11-13", 43, 43, ""], [410, "CDISCPILOT01", "SV", "01-701-1324", 8.0, "WEEK 8", 56, "TREATMENT", "2012-11-25", "2012-11-25", 55, 55, ""], [411, "CDISCPILOT01", "SV", "01-701-1324", 8.1, "WEEK 10 (T)", 70, "TREATMENT", "2012-12-11", "2012-12-11", 71, 71, ""], [412, "CDISCPILOT01", "SV", "01-701-1324", 9.0, "WEEK 12", 84, "TREATMENT", "2012-12-25", "2012-12-25", 85, 85, ""], [413, "CDISCPILOT01", "SV", "01-701-1324", 9.1, "WEEK 14 (T)", 98, "TREATMENT", "2013-01-08", "2013-01-08", 99, 99, ""], [414, "CDISCPILOT01", "SV", "01-701-1324", 10.0, "WEEK 16", 112, "TREATMENT", "2013-01-22", "2013-01-22", 113, 113, ""], [415, "CDISCPILOT01", "SV", "01-701-1324", 10.1, "WEEK 18 (T)", 126, "TREATMENT", "2013-02-05", "2013-02-05", 127, 127, ""], [416, "CDISCPILOT01", "SV", "01-701-1324", 11.0, "WEEK 20", 140, "TREATMENT", "2013-02-19", "2013-02-19", 141, 141, ""], [417, "CDISCPILOT01", "SV", "01-701-1324", 11.1, "WEEK 22 (T)", 154, "TREATMENT", "2013-03-05", "2013-03-05", 155, 155, ""], [418, "CDISCPILOT01", "SV", "01-701-1324", 12.0, "WEEK 24", 168, "TREATMENT", "2013-03-19", "2013-03-19", 169, 169, ""], [419, "CDISCPILOT01", "SV", "01-701-1324", 13.0, "WEEK 26", 182, "TREATMENT", "2013-04-02", "2013-04-02", 183, 183, ""], [420, "CDISCPILOT01", "SV", "01-701-1341", 1.0, "SCREENING 1", -7, "SCREENING", "2012-12-22", "2012-12-22", -14, -14, ""], [421, "CDISCPILOT01", "SV", "01-701-1341", 1.1, "UNSCHEDULED 1.1", null, "SCREENING", "2012-12-26", "2012-12-26", -10, -10, "Unplanned visit to complete unscheduled assessments"], [422, "CDISCPILOT01", "SV", "01-701-1341", 2.0, "SCREENING 2", -1, "SCREENING", "2013-01-03", "2013-01-03", -2, -2, ""], [423, "CDISCPILOT01", "SV", "01-701-1341", 3.0, "BASELINE", 1, "TREATMENT", "2013-01-05", "2013-01-05", 1, 1, ""], [424, "CDISCPILOT01", "SV", "01-701-1341", 3.5, "AMBUL ECG PLACEMENT", 13, "TREATMENT", "2013-01-17", "2013-01-17", 13, 13, ""], [425, "CDISCPILOT01", "SV", "01-701-1341", 4.0, "WEEK 2", 14, "TREATMENT", "2013-01-18", "2013-01-18", 14, 14, ""], [426, "CDISCPILOT01", "SV", "01-701-1341", 5.0, "WEEK 4", 28, "TREATMENT", "2013-02-07", "2013-02-07", 34, 34, ""], [427, "CDISCPILOT01", "SV", "01-701-1341", 101.0, "AE FOLLOW-UP", null, "FOLLOW-UP", "2013-02-21", "2013-02-21", 48, 48, ""], [428, "CDISCPILOT01", "SV", "01-701-1345", 1.0, "SCREENING 1", -7, "SCREENING", "2013-10-01", "2013-10-01", -7, -7, ""], [429, "CDISCPILOT01", "SV", "01-701-1345", 2.0, "SCREENING 2", -1, "SCREENING", "2013-10-06", "2013-10-06", -2, -2, ""], [430, "CDISCPILOT01", "SV", "01-701-1345", 3.0, "BASELINE", 1, "TREATMENT", "2013-10-08", "2013-10-08", 1, 1, ""], [431, "CDISCPILOT01", "SV", "01-701-1345", 3.5, "AMBUL ECG PLACEMENT", 13, "TREATMENT", "2013-10-23", "2013-10-23", 16, 16, ""], [432, "CDISCPILOT01", "SV", "01-701-1345", 4.0, "WEEK 2", 14, "TREATMENT", "2013-10-24", "2013-10-24", 17, 17, ""], [433, "CDISCPILOT01", "SV", "01-701-1345", 5.0, "WEEK 4", 28, "TREATMENT", "2013-11-08", "2013-11-08", 32, 32, ""], [434, "CDISCPILOT01", "SV", "01-701-1345", 6.0, "AMBUL ECG REMOVAL", 30, "TREATMENT", "2013-11-10", "2013-11-10", 34, 34, ""], [435, "CDISCPILOT01", "SV", "01-701-1345", 7.0, "WEEK 6", 42, "TREATMENT", "2013-11-19", "2013-11-19", 43, 43, ""], [436, "CDISCPILOT01", "SV", "01-701-1345", 8.0, "WEEK 8", 56, "TREATMENT", "2013-12-03", "2013-12-03", 57, 57, ""], [437, "CDISCPILOT01", "SV", "01-701-1345", 8.1, "WEEK 10 (T)", 70, "TREATMENT", "2013-12-18", "2013-12-18", 72, 72, ""], [438, "CDISCPILOT01", "SV", "01-701-1345", 9.0, "WEEK 12", 84, "TREATMENT", "2013-12-31", "2013-12-31", 85, 85, ""], [439, "CDISCPILOT01", "SV", "01-701-1345", 9.1, "WEEK 14 (T)", 98, "TREATMENT", "2014-01-14", "2014-01-14", 99, 99, ""], [440, "CDISCPILOT01", "SV", "01-701-1345", 10.0, "WEEK 16", 112, "TREATMENT", "2014-01-27", "2014-01-27", 112, 112, ""], [441, "CDISCPILOT01", "SV", "01-701-1345", 10.1, "WEEK 18 (T)", 126, "TREATMENT", "2014-02-11", "2014-02-11", 127, 127, ""], [442, "CDISCPILOT01", "SV", "01-701-1345", 11.0, "WEEK 20", 140, "TREATMENT", "2014-02-25", "2014-02-25", 141, 141, ""], [443, "CDISCPILOT01", "SV", "01-701-1345", 11.1, "WEEK 22 (T)", 154, "TREATMENT", "2014-03-11", "2014-03-11", 155, 155, ""], [444, "CDISCPILOT01", "SV", "01-701-1345", 12.0, "WEEK 24", 168, "TREATMENT", "2014-03-18", "2014-03-18", 162, 162, ""], [445, "CDISCPILOT01", "SV", "01-701-1356", 1.0, "SCREENING 1", -7, "SCREENING", "2014-04-01", "2014-04-01", null, null, ""], [446, "CDISCPILOT01", "SV", "01-701-1360", 1.0, "SCREENING 1", -7, "SCREENING", "2013-07-24", "2013-07-24", -7, -7, ""], [447, "CDISCPILOT01", "SV", "01-701-1360", 2.0, "SCREENING 2", -1, "SCREENING", "2013-07-29", "2013-07-29", -2, -2, ""], [448, "CDISCPILOT01", "SV", "01-701-1360", 3.0, "BASELINE", 1, "TREATMENT", "2013-07-31", "2013-07-31", 1, 1, ""], [449, "CDISCPILOT01", "SV", "01-701-1360", 4.0, "WEEK 2", 14, "TREATMENT", "2013-08-14", "2013-08-14", 15, 15, ""], [450, "CDISCPILOT01", "SV", "01-701-1360", 101.0, "AE FOLLOW-UP", null, "FOLLOW-UP", "2013-09-09", "2013-09-09", 41, 41, ""], [451, "CDISCPILOT01", "SV", "01-701-1360", 201.0, "RETRIEVAL", 168, "FOLLOW-UP", "2014-02-11", "2014-02-11", 196, 196, ""], [452, "CDISCPILOT01", "SV", "01-701-1363", 1.0, "SCREENING 1", -7, "SCREENING", "2013-05-20", "2013-05-20", -10, -10, ""], [453, "CDISCPILOT01", "SV", "01-701-1363", 2.0, "SCREENING 2", -1, "SCREENING", "2013-05-28", "2013-05-28", -2, -2, ""], [454, "CDISCPILOT01", "SV", "01-701-1363", 3.0, "BASELINE", 1, "TREATMENT", "2013-05-30", "2013-05-30", 1, 1, ""], [455, "CDISCPILOT01", "SV", "01-701-1363", 3.5, "AMBUL ECG PLACEMENT", 13, "TREATMENT", "2013-06-11", "2013-06-11", 13, 13, ""], [456, "CDISCPILOT01", "SV", "01-701-1363", 4.0, "WEEK 2", 14, "TREATMENT", "2013-06-12", "2013-06-12", 14, 14, ""], [457, "CDISCPILOT01", "SV", "01-701-1363", 5.0, "WEEK 4", 28, "TREATMENT", "2013-06-25", "2013-06-25", 27, 27, ""], [458, "CDISCPILOT01", "SV", "01-701-1363", 6.0, "AMBUL ECG REMOVAL", 30, "TREATMENT", "2013-06-27", "2013-06-27", 29, 29, ""], [459, "CDISCPILOT01", "SV", "01-701-1363", 7.0, "WEEK 6", 42, "TREATMENT", "2013-07-10", "2013-07-10", 42, 42, ""], [460, "CDISCPILOT01", "SV", "01-701-1363", 8.0, "WEEK 8", 56, "TREATMENT", "2013-07-24", "2013-07-24", 56, 56, ""], [461, "CDISCPILOT01", "SV", "01-701-1363", 8.1, "WEEK 10 (T)", 70, "TREATMENT", "2013-08-07", "2013-08-07", 70, 70, ""], [462, "CDISCPILOT01", "SV", "01-701-1363", 9.0, "WEEK 12", 84, "TREATMENT", "2013-08-21", "2013-08-21", 84, 84, ""], [463, "CDISCPILOT01", "SV", "01-701-1363", 9.1, "WEEK 14 (T)", 98, "TREATMENT", "2013-09-04", "2013-09-04", 98, 98, ""], [464, "CDISCPILOT01", "SV", "01-701-1363", 10.0, "WEEK 16", 112, "TREATMENT", "2013-09-18", "2013-09-18", 112, 112, ""], [465, "CDISCPILOT01", "SV", "01-701-1363", 10.1, "WEEK 18 (T)", 126, "TREATMENT", "2013-10-02", "2013-10-02", 126, 126, ""], [466, "CDISCPILOT01", "SV", "01-701-1363", 10.2, "UNSCHEDULED 10.2", null, "TREATMENT", "2013-10-02", "2013-10-02", 126, 126, "Unplanned visit to complete unscheduled assessments"], [467, "CDISCPILOT01", "SV", "01-701-1363", 11.0, "WEEK 20", 140, "TREATMENT", "2013-10-14", "2013-10-14", 138, 138, ""], [468, "CDISCPILOT01", "SV", "01-701-1363", 11.1, "WEEK 22 (T)", 154, "TREATMENT", "2013-10-30", "2013-10-30", 154, 154, ""], [469, "CDISCPILOT01", "SV", "01-701-1363", 12.0, "WEEK 24", 168, "TREATMENT", "2013-11-13", "2013-11-13", 168, 168, ""], [470, "CDISCPILOT01", "SV", "01-701-1363", 13.0, "WEEK 26", 182, "TREATMENT", "2013-11-27", "2013-11-27", 182, 182, ""], [471, "CDISCPILOT01", "SV", "01-701-1369", 1.0, "SCREENING 1", -7, "SCREENING", "2013-09-18", "2013-09-18", null, null, ""], [472, "CDISCPILOT01", "SV", "01-701-1383", 1.0, "SCREENING 1", -7, "SCREENING", "2013-01-22", "2013-01-22", -13, -13, ""], [473, "CDISCPILOT01", "SV", "01-701-1383", 2.0, "SCREENING 2", -1, "SCREENING", "2013-02-02", "2013-02-02", -2, -2, ""], [474, "CDISCPILOT01", "SV", "01-701-1383", 3.0, "BASELINE", 1, "TREATMENT", "2013-02-04", "2013-02-04", 1, 1, ""], [475, "CDISCPILOT01", "SV", "01-701-1383", 3.5, "AMBUL ECG PLACEMENT", 13, "TREATMENT", "2013-02-18", "2013-02-18", 15, 15, ""], [476, "CDISCPILOT01", "SV", "01-701-1383", 4.0, "WEEK 2", 14, "TREATMENT", "2013-02-19", "2013-02-19", 16, 16, ""], [477, "CDISCPILOT01", "SV", "01-701-1383", 5.0, "WEEK 4", 28, "TREATMENT", "2013-03-12", "2013-03-12", 37, 37, ""], [478, "CDISCPILOT01", "SV", "01-701-1383", 6.0, "AMBUL ECG REMOVAL", 30, "TREATMENT", "2013-03-14", "2013-03-14", 39, 39, ""], [479, "CDISCPILOT01", "SV", "01-701-1383", 7.0, "WEEK 6", 42, "TREATMENT", "2013-03-19", "2013-03-19", 44, 44, ""], [480, "CDISCPILOT01", "SV", "01-701-1383", 8.0, "WEEK 8", 56, "TREATMENT", "2013-04-02", "2013-04-02", 58, 58, ""], [481, "CDISCPILOT01", "SV", "01-701-1383", 8.1, "WEEK 10 (T)", 70, "TREATMENT", "2013-04-16", "2013-04-16", 72, 72, ""], [482, "CDISCPILOT01", "SV", "01-701-1383", 9.0, "WEEK 12", 84, "TREATMENT", "2013-04-30", "2013-04-30", 86, 86, ""], [483, "CDISCPILOT01", "SV", "01-701-1383", 9.1, "WEEK 14 (T)", 98, "TREATMENT", "2013-05-14", "2013-05-14", 100, 100, ""], [484, "CDISCPILOT01", "SV", "01-701-1383", 10.0, "WEEK 16", 112, "TREATMENT", "2013-05-30", "2013-05-30", 116, 116, ""], [485, "CDISCPILOT01", "SV", "01-701-1383", 10.1, "WEEK 18 (T)", 126, "TREATMENT", "2013-06-13", "2013-06-13", 130, 130, ""], [486, "CDISCPILOT01", "SV", "01-701-1383", 11.0, "WEEK 20", 140, "TREATMENT", "2013-06-25", "2013-06-25", 142, 142, ""], [487, "CDISCPILOT01", "SV", "01-701-1383", 11.1, "WEEK 22 (T)", 154, "TREATMENT", "2013-07-09", "2013-07-09", 156, 156, ""], [488, "CDISCPILOT01", "SV", "01-701-1383", 12.0, "WEEK 24", 168, "TREATMENT", "2013-07-30", "2013-07-30", 177, 177, ""], [489, "CDISCPILOT01", "SV", "01-701-1383", 13.0, "WEEK 26", 182, "TREATMENT", "2013-08-06", "2013-08-06", 184, 184, ""], [490, "CDISCPILOT01", "SV", "01-701-1386", 1.0, "SCREENING 1", -7, "SCREENING", "2013-12-28", "2013-12-28", null, null, ""], [491, "CDISCPILOT01", "SV", "01-701-1387", 1.0, "SCREENING 1", -7, "SCREENING", "2014-02-23", "2014-02-23", -17, -17, ""], [492, "CDISCPILOT01", "SV", "01-701-1387", 2.0, "SCREENING 2", -1, "SCREENING", "2014-03-08", "2014-03-08", -4, -4, ""], [493, "CDISCPILOT01", "SV", "01-701-1387", 3.0, "BASELINE", 1, "TREATMENT", "2014-03-12", "2014-03-12", 1, 1, ""], [494, "CDISCPILOT01", "SV", "01-701-1387", 4.0, "WEEK 2", 14, "TREATMENT", "2014-03-25", "2014-03-25", 14, 14, ""], [495, "CDISCPILOT01", "SV", "01-701-1387", 201.0, "RETRIEVAL", 168, "FOLLOW-UP", "2014-08-27", "2014-08-27", 169, 169, ""], [496, "CDISCPILOT01", "SV", "01-701-1392", 1.0, "SCREENING 1", -7, "SCREENING", "2012-10-17", "2012-10-17", -11, -11, ""], [497, "CDISCPILOT01", "SV", "01-701-1392", 2.0, "SCREENING 2", -1, "SCREENING", "2012-10-26", "2012-10-26", -2, -2, ""], [498, "CDISCPILOT01", "SV", "01-701-1392", 3.0, "BASELINE", 1, "TREATMENT", "2012-10-28", "2012-10-28", 1, 1, ""], [499, "CDISCPILOT01", "SV", "01-701-1392", 3.5, "AMBUL ECG PLACEMENT", 13, "TREATMENT", "2012-11-10", "2012-11-10", 14, 14, ""], [500, "CDISCPILOT01", "SV", "01-701-1392", 4.0, "WEEK 2", 14, "TREATMENT", "2012-11-11", "2012-11-11", 15, 15, ""], [501, "CDISCPILOT01", "SV", "01-701-1392", 5.0, "WEEK 4", 28, "TREATMENT", "2012-11-24", "2012-11-24", 28, 28, ""], [502, "CDISCPILOT01", "SV", "01-701-1392", 6.0, "AMBUL ECG REMOVAL", 30, "TREATMENT", "2012-11-26", "2012-11-26", 30, 30, ""], [503, "CDISCPILOT01", "SV", "01-701-1392", 7.0, "WEEK 6", 42, "TREATMENT", "2012-12-09", "2012-12-09", 43, 43, ""], [504, "CDISCPILOT01", "SV", "01-701-1392", 8.0, "WEEK 8", 56, "TREATMENT", "2012-12-20", "2012-12-20", 54, 54, ""], [505, "CDISCPILOT01", "SV", "01-701-1392", 8.1, "WEEK 10 (T)", 70, "TREATMENT", "2013-01-06", "2013-01-06", 71, 71, ""], [506, "CDISCPILOT01", "SV", "01-701-1392", 9.0, "WEEK 12", 84, "TREATMENT", "2013-01-20", "2013-01-20", 85, 85, ""], [507, "CDISCPILOT01", "SV", "01-701-1392", 9.1, "WEEK 14 (T)", 98, "TREATMENT", "2013-02-03", "2013-02-03", 99, 99, ""], [508, "CDISCPILOT01", "SV", "01-701-1392", 10.0, "WEEK 16", 112, "TREATMENT", "2013-02-17", "2013-02-17", 113, 113, ""], [509, "CDISCPILOT01", "SV", "01-701-1392", 10.1, "WEEK 18 (T)", 126, "TREATMENT", "2013-03-03", "2013-03-03", 127, 127, ""], [510, "CDISCPILOT01", "SV", "01-701-1392", 11.0, "WEEK 20", 140, "TREATMENT", "2013-03-17", "2013-03-17", 141, 141, ""], [511, "CDISCPILOT01", "SV", "01-701-1392", 11.1, "WEEK 22 (T)", 154, "TREATMENT", "2013-03-31", "2013-03-31", 155, 155, ""], [512, "CDISCPILOT01", "SV", "01-701-1392", 12.0, "WEEK 24", 168, "TREATMENT", "2013-04-15", "2013-04-15", 170, 170, ""], [513, "CDISCPILOT01", "SV", "01-701-1392", 13.0, "WEEK 26", 182, "TREATMENT", "2013-04-28", "2013-04-28", 183, 183, ""], [514, "CDISCPILOT01", "SV", "01-701-1411", 1.0, "SCREENING 1", -7, "SCREENING", "2012-11-14", "2012-11-14", null, null, ""], [515, "CDISCPILOT01", "SV", "01-701-1415", 1.0, "SCREENING 1", -7, "SCREENING", "2013-09-15", "2013-09-15", -8, -8, ""], [516, "CDISCPILOT01", "SV", "01-701-1415", 1.1, "UNSCHEDULED 1.1", null, "SCREENING", "2013-09-21", "2013-09-21", -2, -2, "Unplanned visit to complete unscheduled assessments"], [517, "CDISCPILOT01", "SV", "01-701-1415", 2.0, "SCREENING 2", -1, "SCREENING", "2013-09-21", "2013-09-21", -2, -2, ""], [518, "CDISCPILOT01", "SV", "01-701-1415", 3.0, "BASELINE", 1, "TREATMENT", "2013-09-23", "2013-09-23", 1, 1, ""], [519, "CDISCPILOT01", "SV", "01-701-1415", 3.5, "AMBUL ECG PLACEMENT", 13, "TREATMENT", "2013-10-06", "2013-10-06", 14, 14, ""], [520, "CDISCPILOT01", "SV", "01-701-1415", 4.0, "WEEK 2", 14, "TREATMENT", "2013-10-07", "2013-10-07", 15, 15, ""], [521, "CDISCPILOT01", "SV", "01-701-1415", 5.0, "WEEK 4", 28, "TREATMENT", "2013-10-20", "2013-10-20", 28, 28, ""], [522, "CDISCPILOT01", "SV", "01-701-1415", 6.0, "AMBUL ECG REMOVAL", 30, "TREATMENT", "2013-10-22", "2013-10-22", 30, 30, ""], [523, "CDISCPILOT01", "SV", "01-701-1415", 7.0, "WEEK 6", 42, "TREATMENT", "2013-11-04", "2013-11-04", 43, 43, ""], [524, "CDISCPILOT01", "SV", "01-701-1415", 8.0, "WEEK 8", 56, "TREATMENT", "2013-11-21", "2013-11-21", 60, 60, ""], [525, "CDISCPILOT01", "SV", "01-701-1415", 8.1, "WEEK 10 (T)", 70, "TREATMENT", "2013-12-02", "2013-12-02", 71, 71, ""], [526, "CDISCPILOT01", "SV", "01-701-1415", 9.0, "WEEK 12", 84, "TREATMENT", "2013-12-21", "2013-12-21", 90, 90, ""], [527, "CDISCPILOT01", "SV", "01-701-1415", 9.1, "WEEK 14 (T)", 98, "TREATMENT", "2013-12-30", "2013-12-30", 99, 99, ""], [528, "CDISCPILOT01", "SV", "01-701-1415", 10.0, "WEEK 16", 112, "TREATMENT", "2014-01-14", "2014-01-14", 114, 114, ""], [529, "CDISCPILOT01", "SV", "01-701-1415", 10.1, "WEEK 18 (T)", 126, "TREATMENT", "2014-01-27", "2014-01-27", 127, 127, ""], [530, "CDISCPILOT01", "SV", "01-701-1415", 11.0, "WEEK 20", 140, "TREATMENT", "2014-02-10", "2014-02-10", 141, 141, ""], [531, "CDISCPILOT01", "SV", "01-701-1415", 11.1, "WEEK 22 (T)", 154, "TREATMENT", "2014-02-24", "2014-02-24", 155, 155, ""], [532, "CDISCPILOT01", "SV", "01-701-1415", 12.0, "WEEK 24", 168, "TREATMENT", "2014-03-10", "2014-03-10", 169, 169, ""], [533, "CDISCPILOT01", "SV", "01-701-1415", 13.0, "WEEK 26", 182, "TREATMENT", "2014-03-24", "2014-03-24", 183, 183, ""], [534, "CDISCPILOT01", "SV", "01-701-1429", 1.0, "SCREENING 1", -7, "SCREENING", "2013-02-25", "2013-02-25", -22, -22, ""], [535, "CDISCPILOT01", "SV", "01-701-1429", 2.0, "SCREENING 2", -1, "SCREENING", "2013-03-17", "2013-03-17", -2, -2, ""], [536, "CDISCPILOT01", "SV", "01-701-1429", 3.0, "BASELINE", 1, "TREATMENT", "2013-03-19", "2013-03-19", 1, 1, ""], [537, "CDISCPILOT01", "SV", "01-701-1429", 4.0, "WEEK 2", 14, "TREATMENT", "2013-04-02", "2013-04-02", 15, 15, ""], [538, "CDISCPILOT01", "SV", "01-701-1429", 5.0, "WEEK 4", 28, "TREATMENT", "2013-04-16", "2013-04-16", 29, 29, ""], [539, "CDISCPILOT01", "SV", "01-701-1429", 7.0, "WEEK 6", 42, "TREATMENT", "2013-04-30", "2013-04-30", 43, 43, ""], [540, "CDISCPILOT01", "SV", "01-701-1440", 1.0, "SCREENING 1", -7, "SCREENING", "2013-07-24", "2013-07-24", -15, -15, ""], [541, "CDISCPILOT01", "SV", "01-701-1440", 2.0, "SCREENING 2", -1, "SCREENING", "2013-08-06", "2013-08-06", -2, -2, ""], [542, "CDISCPILOT01", "SV", "01-701-1440", 3.0, "BASELINE", 1, "TREATMENT", "2013-08-08", "2013-08-08", 1, 1, ""], [543, "CDISCPILOT01", "SV", "01-701-1440", 3.5, "AMBUL ECG PLACEMENT", 13, "TREATMENT", "2013-08-22", "2013-08-22", 15, 15, ""], [544, "CDISCPILOT01", "SV", "01-701-1440", 4.0, "WEEK 2", 14, "TREATMENT", "2013-08-23", "2013-08-23", 16, 16, ""], [545, "CDISCPILOT01", "SV", "01-701-1440", 5.0, "WEEK 4", 28, "TREATMENT", "2013-09-04", "2013-09-04", 28, 28, ""], [546, "CDISCPILOT01", "SV", "01-701-1440", 6.0, "AMBUL ECG REMOVAL", 30, "TREATMENT", "2013-09-06", "2013-09-06", 30, 30, ""], [547, "CDISCPILOT01", "SV", "01-701-1440", 7.0, "WEEK 6", 42, "TREATMENT", "2013-09-22", "2013-09-22", 46, 46, ""], [548, "CDISCPILOT01", "SV", "01-701-1440", 8.0, "WEEK 8", 56, "TREATMENT", "2013-10-03", "2013-10-03", 57, 57, ""], [549, "CDISCPILOT01", "SV", "01-701-1440", 8.1, "WEEK 10 (T)", 70, "TREATMENT", "2013-10-17", "2013-10-17", 71, 71, ""], [550, "CDISCPILOT01", "SV", "01-701-1440", 9.0, "WEEK 12", 84, "TREATMENT", "2013-10-31", "2013-10-31", 85, 85, ""], [551, "CDISCPILOT01", "SV", "01-701-1440", 9.1, "WEEK 14 (T)", 98, "TREATMENT", "2013-11-14", "2013-11-14", 99, 99, ""], [552, "CDISCPILOT01", "SV", "01-701-1440", 10.0, "WEEK 16", 112, "TREATMENT", "2013-11-27", "2013-11-27", 112, 112, ""], [553, "CDISCPILOT01", "SV", "01-701-1440", 10.1, "WEEK 18 (T)", 126, "TREATMENT", "2013-12-12", "2013-12-12", 127, 127, ""], [554, "CDISCPILOT01", "SV", "01-701-1440", 11.0, "WEEK 20", 140, "TREATMENT", "2013-12-25", "2013-12-25", 140, 140, ""], [555, "CDISCPILOT01", "SV", "01-701-1440", 11.1, "WEEK 22 (T)", 154, "TREATMENT", "2014-01-08", "2014-01-08", 154, 154, ""], [556, "CDISCPILOT01", "SV", "01-701-1440", 12.0, "WEEK 24", 168, "TREATMENT", "2014-01-22", "2014-01-22", 168, 168, ""], [557, "CDISCPILOT01", "SV", "01-701-1440", 13.0, "WEEK 26", 182, "TREATMENT", "2014-02-05", "2014-02-05", 182, 182, ""], [558, "CDISCPILOT01", "SV", "01-701-1442", 1.0, "SCREENING 1", -7, "SCREENING", "2013-10-17", "2013-10-17", -9, -9, ""], [559, "CDISCPILOT01", "SV", "01-701-1442", 2.0, "SCREENING 2", -1, "SCREENING", "2013-10-24", "2013-10-24", -2, -2, ""], [560, "CDISCPILOT01", "SV", "01-701-1442", 3.0, "BASELINE", 1, "TREATMENT", "2013-10-26", "2013-10-26", 1, 1, ""], [561, "CDISCPILOT01", "SV", "01-701-1442", 3.5, "AMBUL ECG PLACEMENT", 13, "TREATMENT", "2013-11-08", "2013-11-08", 14, 14, ""], [562, "CDISCPILOT01", "SV", "01-701-1442", 4.0, "WEEK 2", 14, "TREATMENT", "2013-11-09", "2013-11-09", 15, 15, ""], [563, "CDISCPILOT01", "SV", "01-701-1442", 5.0, "WEEK 4", 28, "TREATMENT", "2013-11-23", "2013-11-23", 29, 29, ""], [564, "CDISCPILOT01", "SV", "01-701-1442", 6.0, "AMBUL ECG REMOVAL", 30, "TREATMENT", "2013-11-25", "2013-11-25", 31, 31, ""], [565, "CDISCPILOT01", "SV", "01-701-1442", 7.0, "WEEK 6", 42, "TREATMENT", "2013-12-07", "2013-12-07", 43, 43, ""], [566, "CDISCPILOT01", "SV", "01-701-1442", 8.0, "WEEK 8", 56, "TREATMENT", "2013-12-26", "2013-12-26", 62, 62, ""], [567, "CDISCPILOT01", "SV", "01-701-1442", 8.1, "WEEK 10 (T)", 70, "TREATMENT", "2014-01-04", "2014-01-04", 71, 71, ""], [568, "CDISCPILOT01", "SV", "01-701-1442", 9.0, "WEEK 12", 84, "TREATMENT", "2014-01-18", "2014-01-18", 85, 85, ""], [569, "CDISCPILOT01", "SV", "01-701-1442", 9.1, "WEEK 14 (T)", 98, "TREATMENT", "2014-02-01", "2014-02-01", 99, 99, ""], [570, "CDISCPILOT01", "SV", "01-701-1442", 10.0, "WEEK 16", 112, "TREATMENT", "2014-02-15", "2014-02-15", 113, 113, ""], [571, "CDISCPILOT01", "SV", "01-701-1442", 10.1, "WEEK 18 (T)", 126, "TREATMENT", "2014-03-01", "2014-03-01", 127, 127, ""], [572, "CDISCPILOT01", "SV", "01-701-1442", 11.0, "WEEK 20", 140, "TREATMENT", "2014-03-15", "2014-03-15", 141, 141, ""], [573, "CDISCPILOT01", "SV", "01-701-1442", 11.1, "WEEK 22 (T)", 154, "TREATMENT", "2014-03-29", "2014-03-29", 155, 155, ""], [574, "CDISCPILOT01", "SV", "01-701-1442", 12.0, "WEEK 24", 168, "TREATMENT", "2014-04-17", "2014-04-17", 174, 174, ""], [575, "CDISCPILOT01", "SV", "01-701-1442", 13.0, "WEEK 26", 182, "TREATMENT", "2014-04-26", "2014-04-26", 183, 183, ""], [576, "CDISCPILOT01", "SV", "01-701-1444", 1.0, "SCREENING 1", -7, "SCREENING", "2012-12-31", "2012-12-31", -5, -5, ""], [577, "CDISCPILOT01", "SV", "01-701-1444", 2.0, "SCREENING 2", -1, "SCREENING", "2013-01-03", "2013-01-03", -2, -2, ""], [578, "CDISCPILOT01", "SV", "01-701-1444", 3.0, "BASELINE", 1, "TREATMENT", "2013-01-05", "2013-01-05", 1, 1, ""], [579, "CDISCPILOT01", "SV", "01-701-1444", 3.5, "AMBUL ECG PLACEMENT", 13, "TREATMENT", "2013-01-17", "2013-01-17", 13, 13, ""], [580, "CDISCPILOT01", "SV", "01-701-1444", 4.0, "WEEK 2", 14, "TREATMENT", "2013-01-18", "2013-01-18", 14, 14, ""], [581, "CDISCPILOT01", "SV", "01-701-1444", 5.0, "WEEK 4", 28, "TREATMENT", "2013-01-31", "2013-01-31", 27, 27, ""], [582, "CDISCPILOT01", "SV", "01-701-1444", 6.0, "AMBUL ECG REMOVAL", 30, "TREATMENT", "2013-02-02", "2013-02-02", 29, 29, ""], [583, "CDISCPILOT01", "SV", "01-701-1444", 7.0, "WEEK 6", 42, "TREATMENT", "2013-02-13", "2013-02-13", 40, 40, ""], [584, "CDISCPILOT01", "SV", "01-701-1444", 101.0, "AE FOLLOW-UP", null, "FOLLOW-UP", "2013-06-20", "2013-06-20", 167, 167, ""], [585, "CDISCPILOT01", "SV", "01-701-1444", 201.0, "RETRIEVAL", 168, "FOLLOW-UP", "2013-06-20", "2013-06-20", 167, 167, ""], [586, "CDISCPILOT01", "SV", "01-702-1082", 1.0, "SCREENING 1", -7, "SCREENING", "2013-07-03", "2013-07-03", -23, -23, ""], [587, "CDISCPILOT01", "SV", "01-702-1082", 1.1, "UNSCHEDULED 1.1", null, "SCREENING", "2013-07-24", "2013-07-24", -2, -2, "Unplanned visit to complete unscheduled assessments"], [588, "CDISCPILOT01", "SV", "01-702-1082", 2.0, "SCREENING 2", -1, "SCREENING", "2013-07-24", "2013-07-24", -2, -2, ""], [589, "CDISCPILOT01", "SV", "01-702-1082", 3.0, "BASELINE", 1, "TREATMENT", "2013-07-26", "2013-07-26", 1, 1, ""], [590, "CDISCPILOT01", "SV", "01-702-1082", 3.5, "AMBUL ECG PLACEMENT", 13, "TREATMENT", "2013-08-07", "2013-08-07", 13, 13, ""], [591, "CDISCPILOT01", "SV", "01-702-1082", 4.0, "WEEK 2", 14, "TREATMENT", "2013-08-08", "2013-08-08", 14, 14, ""], [592, "CDISCPILOT01", "SV", "01-702-1082", 5.0, "WEEK 4", 28, "TREATMENT", "2013-08-24", "2013-08-24", 30, 30, ""], [593, "CDISCPILOT01", "SV", "01-702-1082", 6.0, "AMBUL ECG REMOVAL", 30, "TREATMENT", "2013-09-04", "2013-09-04", 41, 41, ""], [594, "CDISCPILOT01", "SV", "01-702-1082", 7.0, "WEEK 6", 42, "TREATMENT", "2013-09-06", "2013-09-06", 43, 43, ""], [595, "CDISCPILOT01", "SV", "01-702-1082", 8.0, "WEEK 8", 56, "TREATMENT", "2013-09-28", "2013-09-28", 65, 65, ""], [596, "CDISCPILOT01", "SV", "01-702-1082", 8.1, "WEEK 10 (T)", 70, "TREATMENT", "2013-10-12", "2013-10-12", 79, 79, ""], [597, "CDISCPILOT01", "SV", "01-702-1082", 9.0, "WEEK 12", 84, "TREATMENT", "2013-11-17", "2013-11-17", 115, 115, ""], [598, "CDISCPILOT01", "SV", "01-703-1042", 1.0, "SCREENING 1", -7, "SCREENING", "2013-02-23", "2013-02-23", -7, -7, ""], [599, "CDISCPILOT01", "SV", "01-703-1042", 1.1, "UNSCHEDULED 1.1", null, "", "2013-02-21", "2013-02-21", -9, -9, "Unplanned visit to complete unscheduled assessments"], [600, "CDISCPILOT01", "SV", "01-703-1042", 2.0, "SCREENING 2", -1, "SCREENING", "2013-02-28", "2013-02-28", -2, -2, ""], [601, "CDISCPILOT01", "SV", "01-703-1042", 3.0, "BASELINE", 1, "TREATMENT", "2013-03-02", "2013-03-02", 1, 1, ""], [602, "CDISCPILOT01", "SV", "01-703-1042", 3.5, "AMBUL ECG PLACEMENT", 13, "TREATMENT", "2013-03-13", "2013-03-13", 12, 12, ""], [603, "CDISCPILOT01", "SV", "01-703-1042", 4.0, "WEEK 2", 14, "TREATMENT", "2013-03-14", "2013-03-14", 13, 13, ""], [604, "CDISCPILOT01", "SV", "01-703-1042", 5.0, "WEEK 4", 28, "TREATMENT", "2013-03-28", "2013-03-28", 27, 27, ""], [605, "CDISCPILOT01", "SV", "01-703-1042", 6.0, "AMBUL ECG REMOVAL", 30, "TREATMENT", "2013-03-30", "2013-03-30", 29, 29, ""], [606, "CDISCPILOT01", "SV", "01-703-1042", 7.0, "WEEK 6", 42, "TREATMENT", "2013-04-13", "2013-04-13", 43, 43, ""], [607, "CDISCPILOT01", "SV", "01-703-1042", 8.0, "WEEK 8", 56, "TREATMENT", "2013-04-27", "2013-04-27", 57, 57, ""], [608, "CDISCPILOT01", "SV", "01-703-1042", 8.1, "WEEK 10 (T)", 70, "TREATMENT", "2013-05-11", "2013-05-11", 71, 71, ""], [609, "CDISCPILOT01", "SV", "01-703-1042", 9.0, "WEEK 12", 84, "TREATMENT", "2013-05-25", "2013-05-25", 85, 85, ""], [610, "CDISCPILOT01", "SV", "01-703-1042", 9.1, "WEEK 14 (T)", 98, "TREATMENT", "2013-06-08", "2013-06-08", 99, 99, ""], [611, "CDISCPILOT01", "SV", "01-703-1042", 10.0, "WEEK 16", 112, "TREATMENT", "2013-06-22", "2013-06-22", 113, 113, ""], [612, "CDISCPILOT01", "SV", "01-703-1042", 10.1, "WEEK 18 (T)", 126, "TREATMENT", "2013-07-06", "2013-07-06", 127, 127, ""], [613, "CDISCPILOT01", "SV", "01-703-1042", 11.0, "WEEK 20", 140, "TREATMENT", "2013-07-20", "2013-07-20", 141, 141, ""], [614, "CDISCPILOT01", "SV", "01-703-1042", 11.1, "WEEK 22 (T)", 154, "TREATMENT", "2013-08-03", "2013-08-03", 155, 155, ""], [615, "CDISCPILOT01", "SV", "01-703-1042", 12.0, "WEEK 24", 168, "TREATMENT", "2013-08-09", "2013-08-09", 161, 161, ""], [616, "CDISCPILOT01", "SV", "01-703-1042", 13.0, "WEEK 26", 182, "TREATMENT", "2013-08-31", "2013-08-31", 183, 183, ""], [617, "CDISCPILOT01", "SV", "01-703-1076", 1.0, "SCREENING 1", -7, "SCREENING", "2013-10-17", "2013-10-17", -8, -8, ""], [618, "CDISCPILOT01", "SV", "01-703-1076", 2.0, "SCREENING 2", -1, "SCREENING", "2013-10-23", "2013-10-23", -2, -2, ""], [619, "CDISCPILOT01", "SV", "01-703-1076", 3.0, "BASELINE", 1, "TREATMENT", "2013-10-25", "2013-10-25", 1, 1, ""], [620, "CDISCPILOT01", "SV", "01-703-1076", 3.5, "AMBUL ECG PLACEMENT", 13, "TREATMENT", "2013-11-05", "2013-11-05", 12, 12, ""], [621, "CDISCPILOT01", "SV", "01-703-1076", 4.0, "WEEK 2", 14, "TREATMENT", "2013-11-06", "2013-11-06", 13, 13, ""], [622, "CDISCPILOT01", "SV", "01-703-1076", 5.0, "WEEK 4", 28, "TREATMENT", "2013-11-20", "2013-11-20", 27, 27, ""], [623, "CDISCPILOT01", "SV", "01-703-1076", 6.0, "AMBUL ECG REMOVAL", 30, "TREATMENT", "2013-11-22", "2013-11-22", 29, 29, ""], [624, "CDISCPILOT01", "SV", "01-703-1076", 7.0, "WEEK 6", 42, "TREATMENT", "2013-12-04", "2013-12-04", 41, 41, ""], [625, "CDISCPILOT01", "SV", "01-703-1076", 8.0, "WEEK 8", 56, "TREATMENT", "2013-12-17", "2013-12-17", 54, 54, ""], [626, "CDISCPILOT01", "SV", "01-703-1076", 9.0, "WEEK 12", 84, "TREATMENT", "2013-12-24", "2013-12-24", 61, 61, ""], [627, "CDISCPILOT01", "SV", "01-703-1076", 101.0, "AE FOLLOW-UP", null, "FOLLOW-UP", "2014-01-21", "2014-01-21", 89, 89, ""], [628, "CDISCPILOT01", "SV", "01-703-1086", 1.0, "SCREENING 1", -7, "SCREENING", "2012-08-22", "2012-08-22", -11, -11, ""], [629, "CDISCPILOT01", "SV", "01-703-1086", 1.1, "UNSCHEDULED 1.1", null, "SCREENING", "2012-08-31", "2012-08-31", -2, -2, "Unplanned visit to complete unscheduled assessments"], [630, "CDISCPILOT01", "SV", "01-703-1086", 2.0, "SCREENING 2", -1, "SCREENING", "2012-08-31", "2012-08-31", -2, -2, ""], [631, "CDISCPILOT01", "SV", "01-703-1086", 3.0, "BASELINE", 1, "TREATMENT", "2012-09-02", "2012-09-02", 1, 1, ""], [632, "CDISCPILOT01", "SV", "01-703-1086", 3.5, "AMBUL ECG PLACEMENT", 13, "TREATMENT", "2012-09-15", "2012-09-15", 14, 14, ""], [633, "CDISCPILOT01", "SV", "01-703-1086", 4.0, "WEEK 2", 14, "TREATMENT", "2012-09-16", "2012-09-16", 15, 15, ""], [634, "CDISCPILOT01", "SV", "01-703-1086", 5.0, "WEEK 4", 28, "TREATMENT", "2012-09-30", "2012-09-30", 29, 29, ""], [635, "CDISCPILOT01", "SV", "01-703-1086", 6.0, "AMBUL ECG REMOVAL", 30, "TREATMENT", "2012-10-02", "2012-10-02", 31, 31, ""], [636, "CDISCPILOT01", "SV", "01-703-1086", 7.0, "WEEK 6", 42, "TREATMENT", "2012-10-13", "2012-10-13", 42, 42, ""], [637, "CDISCPILOT01", "SV", "01-703-1086", 8.0, "WEEK 8", 56, "TREATMENT", "2012-10-27", "2012-10-27", 56, 56, ""], [638, "CDISCPILOT01", "SV", "01-703-1086", 8.1, "WEEK 10 (T)", 70, "TREATMENT", "2012-11-10", "2012-11-10", 70, 70, ""], [639, "CDISCPILOT01", "SV", "01-703-1086", 9.0, "WEEK 12", 84, "TREATMENT", "2012-11-27", "2012-11-27", 87, 87, ""], [640, "CDISCPILOT01", "SV", "01-703-1086", 9.1, "WEEK 14 (T)", 98, "TREATMENT", "2012-12-11", "2012-12-11", 101, 101, ""], [641, "CDISCPILOT01", "SV", "01-703-1086", 10.0, "WEEK 16", 112, "TREATMENT", "2012-12-24", "2012-12-24", 114, 114, ""], [642, "CDISCPILOT01", "SV", "01-703-1086", 101.0, "AE FOLLOW-UP", null, "FOLLOW-UP", "2013-01-02", "2013-01-02", 123, 123, ""], [643, "CDISCPILOT01", "SV", "01-703-1086", 201.0, "RETRIEVAL", 168, "FOLLOW-UP", "2013-03-26", "2013-03-26", 206, 206, ""], [644, "CDISCPILOT01", "SV", "01-703-1096", 1.0, "SCREENING 1", -7, "SCREENING", "2012-12-19", "2012-12-19", -37, -37, ""], [645, "CDISCPILOT01", "SV", "01-703-1096", 1.1, "UNSCHEDULED 1.1", null, "SCREENING", "2012-12-19", "2012-12-19", -37, -37, "Unplanned visit to complete unscheduled assessments"], [646, "CDISCPILOT01", "SV", "01-703-1096", 1.2, "UNSCHEDULED 1.2", null, "SCREENING", "2012-12-29", "2012-12-29", -27, -27, "Unplanned visit to complete unscheduled assessments"], [647, "CDISCPILOT01", "SV", "01-703-1096", 1.3, "UNSCHEDULED 1.3", null, "SCREENING", "2013-01-23", "2013-01-23", -2, -2, "Unplanned visit to complete unscheduled assessments"], [648, "CDISCPILOT01", "SV", "01-703-1096", 2.0, "SCREENING 2", -1, "SCREENING", "2013-01-23", "2013-01-23", -2, -2, ""], [649, "CDISCPILOT01", "SV", "01-703-1096", 3.0, "BASELINE", 1, "TREATMENT", "2013-01-25", "2013-01-25", 1, 1, ""], [650, "CDISCPILOT01", "SV", "01-703-1096", 3.5, "AMBUL ECG PLACEMENT", 13, "TREATMENT", "2013-02-08", "2013-02-08", 15, 15, ""], [651, "CDISCPILOT01", "SV", "01-703-1096", 4.0, "WEEK 2", 14, "TREATMENT", "2013-02-09", "2013-02-09", 16, 16, ""], [652, "CDISCPILOT01", "SV", "01-703-1096", 5.0, "WEEK 4", 28, "TREATMENT", "2013-02-23", "2013-02-23", 30, 30, ""], [653, "CDISCPILOT01", "SV", "01-703-1096", 6.0, "AMBUL ECG REMOVAL", 30, "TREATMENT", "2013-02-27", "2013-02-27", 34, 34, ""], [654, "CDISCPILOT01", "SV", "01-703-1096", 7.0, "WEEK 6", 42, "TREATMENT", "2013-03-29", "2013-03-29", 64, 64, ""], [655, "CDISCPILOT01", "SV", "01-703-1100", 1.0, "SCREENING 1", -7, "SCREENING", "2013-02-28", "2013-02-28", -13, -13, ""], [656, "CDISCPILOT01", "SV", "01-703-1100", 1.1, "UNSCHEDULED 1.1", null, "", "2012-12-27", "2012-12-27", -76, -76, "Unplanned visit to complete unscheduled assessments"], [657, "CDISCPILOT01", "SV", "01-703-1100", 1.2, "UNSCHEDULED 1.2", null, "SCREENING", "2013-02-28", "2013-02-28", -13, -13, "Unplanned visit to complete unscheduled assessments"], [658, "CDISCPILOT01", "SV", "01-703-1100", 2.0, "SCREENING 2", -1, "SCREENING", "2013-03-11", "2013-03-11", -2, -2, ""], [659, "CDISCPILOT01", "SV", "01-703-1100", 3.0, "BASELINE", 1, "TREATMENT", "2013-03-13", "2013-03-13", 1, 1, ""], [660, "CDISCPILOT01", "SV", "01-703-1100", 3.5, "AMBUL ECG PLACEMENT", 13, "TREATMENT", "2013-03-28", "2013-03-28", 16, 16, ""], [661, "CDISCPILOT01", "SV", "01-703-1100", 4.0, "WEEK 2", 14, "TREATMENT", "2013-03-29", "2013-03-29", 17, 17, ""], [662, "CDISCPILOT01", "SV", "01-703-1100", 5.0, "WEEK 4", 28, "TREATMENT", "2013-04-12", "2013-04-12", 31, 31, ""], [663, "CDISCPILOT01", "SV", "01-703-1100", 6.0, "AMBUL ECG REMOVAL", 30, "TREATMENT", "2013-04-14", "2013-04-14", 33, 33, ""], [664, "CDISCPILOT01", "SV", "01-703-1100", 7.0, "WEEK 6", 42, "TREATMENT", "2013-04-24", "2013-04-24", 43, 43, ""], [665, "CDISCPILOT01", "SV", "01-703-1100", 8.0, "WEEK 8", 56, "TREATMENT", "2013-05-08", "2013-05-08", 57, 57, ""], [666, "CDISCPILOT01", "SV", "01-703-1100", 8.1, "WEEK 10 (T)", 70, "TREATMENT", "2013-05-22", "2013-05-22", 71, 71, ""], [667, "CDISCPILOT01", "SV", "01-703-1100", 9.0, "WEEK 12", 84, "TREATMENT", "2013-06-05", "2013-06-05", 85, 85, ""], [668, "CDISCPILOT01", "SV", "01-703-1100", 9.1, "WEEK 14 (T)", 98, "TREATMENT", "2013-06-19", "2013-06-19", 99, 99, ""], [669, "CDISCPILOT01", "SV", "01-703-1100", 10.0, "WEEK 16", 112, "TREATMENT", "2013-07-03", "2013-07-03", 113, 113, ""], [670, "CDISCPILOT01", "SV", "01-703-1100", 10.1, "WEEK 18 (T)", 126, "TREATMENT", "2013-07-19", "2013-07-19", 129, 129, ""], [671, "CDISCPILOT01", "SV", "01-703-1100", 11.0, "WEEK 20", 140, "TREATMENT", "2013-07-31", "2013-07-31", 141, 141, ""], [672, "CDISCPILOT01", "SV", "01-703-1100", 11.1, "WEEK 22 (T)", 154, "TREATMENT", "2013-08-09", "2013-08-09", 150, 150, ""], [673, "CDISCPILOT01", "SV", "01-703-1100", 12.0, "WEEK 24", 168, "TREATMENT", "2013-08-28", "2013-08-28", 169, 169, ""], [674, "CDISCPILOT01", "SV", "01-703-1100", 13.0, "WEEK 26", 182, "TREATMENT", "2013-09-14", "2013-09-14", 186, 186, ""], [675, "CDISCPILOT01", "SV", "01-703-1119", 1.0, "SCREENING 1", -7, "SCREENING", "2013-02-02", "2013-02-02", -18, -18, ""], [676, "CDISCPILOT01", "SV", "01-703-1119", 1.1, "UNSCHEDULED 1.1", null, "SCREENING", "2013-02-13", "2013-02-13", -7, -7, "Unplanned visit to complete unscheduled assessments"], [677, "CDISCPILOT01", "SV", "01-703-1119", 1.2, "UNSCHEDULED 1.2", null, "SCREENING", "2013-02-16", "2013-02-16", -4, -4, "Unplanned visit to complete unscheduled assessments"], [678, "CDISCPILOT01", "SV", "01-703-1119", 1.3, "UNSCHEDULED 1.3", null, "SCREENING", "2013-02-14", "2013-02-14", -6, -6, "Unplanned visit to complete unscheduled assessments"], [679, "CDISCPILOT01", "SV", "01-703-1119", 2.0, "SCREENING 2", -1, "SCREENING", "2013-02-14", "2013-02-14", -6, -6, ""], [680, "CDISCPILOT01", "SV", "01-703-1119", 3.0, "BASELINE", 1, "TREATMENT", "2013-02-20", "2013-02-20", 1, 1, ""], [681, "CDISCPILOT01", "SV", "01-703-1119", 3.5, "AMBUL ECG PLACEMENT", 13, "TREATMENT", "2013-03-09", "2013-03-09", 18, 18, ""], [682, "CDISCPILOT01", "SV", "01-703-1119", 4.0, "WEEK 2", 14, "TREATMENT", "2013-03-10", "2013-03-10", 19, 19, ""], [683, "CDISCPILOT01", "SV", "01-703-1119", 5.0, "WEEK 4", 28, "TREATMENT", "2013-03-21", "2013-03-21", 30, 30, ""], [684, "CDISCPILOT01", "SV", "01-703-1119", 6.0, "AMBUL ECG REMOVAL", 30, "TREATMENT", "2013-03-23", "2013-03-23", 32, 32, ""], [685, "CDISCPILOT01", "SV", "01-703-1119", 7.0, "WEEK 6", 42, "TREATMENT", "2013-04-04", "2013-04-04", 44, 44, ""], [686, "CDISCPILOT01", "SV", "01-703-1119", 8.0, "WEEK 8", 56, "TREATMENT", "2013-04-19", "2013-04-19", 59, 59, ""], [687, "CDISCPILOT01", "SV", "01-703-1119", 8.1, "WEEK 10 (T)", 70, "TREATMENT", "2013-05-03", "2013-05-03", 73, 73, ""], [688, "CDISCPILOT01", "SV", "01-703-1119", 9.0, "WEEK 12", 84, "TREATMENT", "2013-05-17", "2013-05-17", 87, 87, ""], [689, "CDISCPILOT01", "SV", "01-703-1119", 9.1, "WEEK 14 (T)", 98, "TREATMENT", "2013-05-31", "2013-05-31", 101, 101, ""], [690, "CDISCPILOT01", "SV", "01-703-1119", 10.0, "WEEK 16", 112, "TREATMENT", "2013-06-13", "2013-06-13", 114, 114, ""], [691, "CDISCPILOT01", "SV", "01-703-1119", 101.0, "AE FOLLOW-UP", null, "FOLLOW-UP", "2013-07-20", "2013-07-20", 151, 151, ""], [692, "CDISCPILOT01", "SV", "01-703-1119", 201.0, "RETRIEVAL", 168, "FOLLOW-UP", "2013-08-24", "2013-08-24", 186, 186, ""], [693, "CDISCPILOT01", "SV", "01-703-1175", 1.0, "SCREENING 1", -7, "SCREENING", "2013-12-13", "2013-12-13", -7, -7, ""], [694, "CDISCPILOT01", "SV", "01-703-1175", 2.0, "SCREENING 2", -1, "SCREENING", "2013-12-18", "2013-12-18", -2, -2, ""], [695, "CDISCPILOT01", "SV", "01-703-1175", 3.0, "BASELINE", 1, "TREATMENT", "2013-12-20", "2013-12-20", 1, 1, ""], [696, "CDISCPILOT01", "SV", "01-703-1175", 4.0, "WEEK 2", 14, "TREATMENT", "2013-12-31", "2013-12-31", 12, 12, ""], [697, "CDISCPILOT01", "SV", "01-703-1175", 101.0, "AE FOLLOW-UP", null, "TREATMENT", "2013-12-31", "2013-12-31", 12, 12, ""], [698, "CDISCPILOT01", "SV", "01-703-1182", 1.0, "SCREENING 1", -7, "SCREENING", "2013-10-08", "2013-10-08", -9, -9, ""], [699, "CDISCPILOT01", "SV", "01-703-1182", 2.0, "SCREENING 2", -1, "SCREENING", "2013-10-15", "2013-10-15", -2, -2, ""], [700, "CDISCPILOT01", "SV", "01-703-1182", 3.0, "BASELINE", 1, "TREATMENT", "2013-10-17", "2013-10-17", 1, 1, ""], [701, "CDISCPILOT01", "SV", "01-703-1182", 3.5, "AMBUL ECG PLACEMENT", 13, "TREATMENT", "2013-10-30", "2013-10-30", 14, 14, ""], [702, "CDISCPILOT01", "SV", "01-703-1182", 4.0, "WEEK 2", 14, "TREATMENT", "2013-10-31", "2013-10-31", 15, 15, ""], [703, "CDISCPILOT01", "SV", "01-703-1182", 5.0, "WEEK 4", 28, "TREATMENT", "2013-11-19", "2013-11-19", 34, 34, ""], [704, "CDISCPILOT01", "SV", "01-703-1182", 6.0, "AMBUL ECG REMOVAL", 30, "TREATMENT", "2013-11-20", "2013-11-20", 35, 35, ""], [705, "CDISCPILOT01", "SV", "01-703-1182", 7.0, "WEEK 6", 42, "TREATMENT", "2013-11-28", "2013-11-28", 43, 43, ""], [706, "CDISCPILOT01", "SV", "01-703-1182", 8.0, "WEEK 8", 56, "TREATMENT", "2013-12-12", "2013-12-12", 57, 57, ""], [707, "CDISCPILOT01", "SV", "01-703-1182", 101.0, "AE FOLLOW-UP", null, "FOLLOW-UP", "2014-01-14", "2014-01-14", 90, 90, ""], [708, "CDISCPILOT01", "SV", "01-703-1197", 1.0, "SCREENING 1", -7, "SCREENING", "2013-06-01", "2013-06-01", -15, -15, ""], [709, "CDISCPILOT01", "SV", "01-703-1197", 1.1, "UNSCHEDULED 1.1", null, "SCREENING", "2013-06-01", "2013-06-01", -15, -15, "Unplanned visit to complete unscheduled assessments"], [710, "CDISCPILOT01", "SV", "01-703-1197", 2.0, "SCREENING 2", -1, "SCREENING", "2013-06-14", "2013-06-14", -2, -2, ""], [711, "CDISCPILOT01", "SV", "01-703-1197", 3.0, "BASELINE", 1, "TREATMENT", "2013-06-16", "2013-06-16", 1, 1, ""], [712, "CDISCPILOT01", "SV", "01-703-1197", 4.0, "WEEK 2", 14, "TREATMENT", "2013-07-22", "2013-07-22", 37, 37, ""], [713, "CDISCPILOT01", "SV", "01-703-1210", 1.0, "SCREENING 1", -7, "SCREENING", "2013-03-08", "2013-03-08", -8, -8, ""], [714, "CDISCPILOT01", "SV", "01-703-1210", 2.0, "SCREENING 2", -1, "SCREENING", "2013-03-14", "2013-03-14", -2, -2, ""], [715, "CDISCPILOT01", "SV", "01-703-1210", 3.0, "BASELINE", 1, "TREATMENT", "2013-03-16", "2013-03-16", 1, 1, ""], [716, "CDISCPILOT01", "SV", "01-703-1210", 3.5, "AMBUL ECG PLACEMENT", 13, "TREATMENT", "2013-03-29", "2013-03-29", 14, 14, ""], [717, "CDISCPILOT01", "SV", "01-703-1210", 4.0, "WEEK 2", 14, "TREATMENT", "2013-03-30", "2013-03-30", 15, 15, ""], [718, "CDISCPILOT01", "SV", "01-703-1210", 5.0, "WEEK 4", 28, "TREATMENT", "2013-04-12", "2013-04-12", 28, 28, ""], [719, "CDISCPILOT01", "SV", "01-703-1210", 6.0, "AMBUL ECG REMOVAL", 30, "TREATMENT", "2013-04-14", "2013-04-14", 30, 30, ""], [720, "CDISCPILOT01", "SV", "01-703-1210", 7.0, "WEEK 6", 42, "TREATMENT", "2013-04-28", "2013-04-28", 44, 44, ""], [721, "CDISCPILOT01", "SV", "01-703-1210", 8.0, "WEEK 8", 56, "TREATMENT", "2013-05-10", "2013-05-10", 56, 56, ""], [722, "CDISCPILOT01", "SV", "01-703-1210", 8.1, "WEEK 10 (T)", 70, "TREATMENT", "2013-05-24", "2013-05-24", 70, 70, ""], [723, "CDISCPILOT01", "SV", "01-703-1210", 9.0, "WEEK 12", 84, "TREATMENT", "2013-06-07", "2013-06-07", 84, 84, ""], [724, "CDISCPILOT01", "SV", "01-703-1210", 9.1, "WEEK 14 (T)", 98, "TREATMENT", "2013-06-21", "2013-06-21", 98, 98, ""], [725, "CDISCPILOT01", "SV", "01-703-1210", 10.0, "WEEK 16", 112, "TREATMENT", "2013-07-05", "2013-07-05", 112, 112, ""], [726, "CDISCPILOT01", "SV", "01-703-1210", 10.1, "WEEK 18 (T)", 126, "TREATMENT", "2013-07-19", "2013-07-19", 126, 126, ""], [727, "CDISCPILOT01", "SV", "01-703-1210", 11.0, "WEEK 20", 140, "TREATMENT", "2013-07-27", "2013-07-27", 134, 134, ""], [728, "CDISCPILOT01", "SV", "01-703-1210", 11.1, "WEEK 22 (T)", 154, "TREATMENT", "2013-08-09", "2013-08-09", 147, 147, ""], [729, "CDISCPILOT01", "SV", "01-703-1210", 12.0, "WEEK 24", 168, "TREATMENT", "2013-08-24", "2013-08-24", 162, 162, ""], [730, "CDISCPILOT01", "SV", "01-703-1210", 13.0, "WEEK 26", 182, "TREATMENT", "2013-09-06", "2013-09-06", 175, 175, ""], [731, "CDISCPILOT01", "SV", "01-703-1258", 1.0, "SCREENING 1", -7, "SCREENING", "2012-07-10", "2012-07-10", -10, -10, ""], [732, "CDISCPILOT01", "SV", "01-703-1258", 2.0, "SCREENING 2", -1, "SCREENING", "2012-07-18", "2012-07-18", -2, -2, ""], [733, "CDISCPILOT01", "SV", "01-703-1258", 3.0, "BASELINE", 1, "TREATMENT", "2012-07-20", "2012-07-20", 1, 1, ""], [734, "CDISCPILOT01", "SV", "01-703-1258", 3.5, "AMBUL ECG PLACEMENT", 13, "TREATMENT", "2012-07-31", "2012-07-31", 12, 12, ""], [735, "CDISCPILOT01", "SV", "01-703-1258", 4.0, "WEEK 2", 14, "TREATMENT", "2012-08-01", "2012-08-01", 13, 13, ""], [736, "CDISCPILOT01", "SV", "01-703-1258", 5.0, "WEEK 4", 28, "TREATMENT", "2012-08-17", "2012-08-17", 29, 29, ""], [737, "CDISCPILOT01", "SV", "01-703-1258", 6.0, "AMBUL ECG REMOVAL", 30, "TREATMENT", "2012-08-19", "2012-08-19", 31, 31, ""], [738, "CDISCPILOT01", "SV", "01-703-1258", 7.0, "WEEK 6", 42, "TREATMENT", "2012-09-04", "2012-09-04", 47, 47, ""], [739, "CDISCPILOT01", "SV", "01-703-1258", 8.0, "WEEK 8", 56, "TREATMENT", "2012-09-14", "2012-09-14", 57, 57, ""], [740, "CDISCPILOT01", "SV", "01-703-1258", 8.1, "WEEK 10 (T)", 70, "TREATMENT", "2012-09-28", "2012-09-28", 71, 71, ""], [741, "CDISCPILOT01", "SV", "01-703-1258", 9.0, "WEEK 12", 84, "TREATMENT", "2012-10-09", "2012-10-09", 82, 82, ""], [742, "CDISCPILOT01", "SV", "01-703-1258", 9.1, "WEEK 14 (T)", 98, "TREATMENT", "2012-10-23", "2012-10-23", 96, 96, ""], [743, "CDISCPILOT01", "SV", "01-703-1258", 10.0, "WEEK 16", 112, "TREATMENT", "2012-11-05", "2012-11-05", 109, 109, ""], [744, "CDISCPILOT01", "SV", "01-703-1258", 10.1, "WEEK 18 (T)", 126, "TREATMENT", "2012-11-19", "2012-11-19", 123, 123, ""], [745, "CDISCPILOT01", "SV", "01-703-1258", 11.0, "WEEK 20", 140, "TREATMENT", "2012-12-03", "2012-12-03", 137, 137, ""], [746, "CDISCPILOT01", "SV", "01-703-1258", 11.1, "WEEK 22 (T)", 154, "TREATMENT", "2012-12-20", "2012-12-20", 154, 154, ""], [747, "CDISCPILOT01", "SV", "01-703-1258", 12.0, "WEEK 24", 168, "TREATMENT", "2012-12-31", "2012-12-31", 165, 165, ""], [748, "CDISCPILOT01", "SV", "01-703-1258", 13.0, "WEEK 26", 182, "TREATMENT", "2013-01-21", "2013-01-21", 186, 186, ""], [749, "CDISCPILOT01", "SV", "01-703-1258", 101.0, "AE FOLLOW-UP", null, "FOLLOW-UP", "2013-01-28", "2013-01-28", 193, 193, ""], [750, "CDISCPILOT01", "SV", "01-703-1279", 1.0, "SCREENING 1", -7, "SCREENING", "2013-04-27", "2013-04-27", -16, -16, ""], [751, "CDISCPILOT01", "SV", "01-703-1279", 2.0, "SCREENING 2", -1, "SCREENING", "2013-05-11", "2013-05-11", -2, -2, ""], [752, "CDISCPILOT01", "SV", "01-703-1279", 3.0, "BASELINE", 1, "TREATMENT", "2013-05-13", "2013-05-13", 1, 1, ""], [753, "CDISCPILOT01", "SV", "01-703-1279", 4.0, "WEEK 2", 14, "TREATMENT", "2013-06-22", "2013-06-22", 41, 41, ""], [754, "CDISCPILOT01", "SV", "01-703-1295", 1.0, "SCREENING 1", -7, "SCREENING", "2013-10-24", "2013-10-24", -28, -28, ""], [755, "CDISCPILOT01", "SV", "01-703-1295", 1.1, "UNSCHEDULED 1.1", null, "SCREENING", "2013-11-04", "2013-11-04", -17, -17, "Unplanned visit to complete unscheduled assessments"], [756, "CDISCPILOT01", "SV", "01-703-1295", 2.0, "SCREENING 2", -1, "SCREENING", "2013-11-19", "2013-11-19", -2, -2, ""], [757, "CDISCPILOT01", "SV", "01-703-1295", 3.0, "BASELINE", 1, "TREATMENT", "2013-11-21", "2013-11-21", 1, 1, ""], [758, "CDISCPILOT01", "SV", "01-703-1295", 3.5, "AMBUL ECG PLACEMENT", 13, "TREATMENT", "2013-12-04", "2013-12-04", 14, 14, ""], [759, "CDISCPILOT01", "SV", "01-703-1295", 4.0, "WEEK 2", 14, "TREATMENT", "2013-12-05", "2013-12-05", 15, 15, ""], [760, "CDISCPILOT01", "SV", "01-703-1295", 5.0, "WEEK 4", 28, "TREATMENT", "2013-12-18", "2013-12-18", 28, 28, ""], [761, "CDISCPILOT01", "SV", "01-703-1295", 6.0, "AMBUL ECG REMOVAL", 30, "TREATMENT", "2013-12-20", "2013-12-20", 30, 30, ""], [762, "CDISCPILOT01", "SV", "01-703-1295", 7.0, "WEEK 6", 42, "TREATMENT", "2014-01-01", "2014-01-01", 42, 42, ""], [763, "CDISCPILOT01", "SV", "01-703-1295", 8.0, "WEEK 8", 56, "TREATMENT", "2014-01-15", "2014-01-15", 56, 56, ""], [764, "CDISCPILOT01", "SV", "01-703-1295", 8.1, "WEEK 10 (T)", 70, "TREATMENT", "2014-01-29", "2014-01-29", 70, 70, ""], [765, "CDISCPILOT01", "SV", "01-703-1295", 9.0, "WEEK 12", 84, "TREATMENT", "2014-02-18", "2014-02-18", 90, 90, ""], [766, "CDISCPILOT01", "SV", "01-703-1295", 9.1, "WEEK 14 (T)", 98, "TREATMENT", "2014-03-04", "2014-03-04", 104, 104, ""], [767, "CDISCPILOT01", "SV", "01-703-1295", 10.0, "WEEK 16", 112, "TREATMENT", "2014-03-13", "2014-03-13", 113, 113, ""], [768, "CDISCPILOT01", "SV", "01-703-1295", 11.0, "WEEK 20", 140, "TREATMENT", "2014-05-19", "2014-05-19", 180, 180, ""], [769, "CDISCPILOT01", "SV", "01-703-1299", 1.0, "SCREENING 1", -7, "SCREENING", "2012-09-07", "2012-09-07", -5, -5, ""], [770, "CDISCPILOT01", "SV", "01-703-1299", 2.0, "SCREENING 2", -1, "SCREENING", "2012-09-10", "2012-09-10", -2, -2, ""], [771, "CDISCPILOT01", "SV", "01-703-1299", 3.0, "BASELINE", 1, "TREATMENT", "2012-09-12", "2012-09-12", 1, 1, ""], [772, "CDISCPILOT01", "SV", "01-703-1299", 3.5, "AMBUL ECG PLACEMENT", 13, "TREATMENT", "2012-09-27", "2012-09-27", 16, 16, ""], [773, "CDISCPILOT01", "SV", "01-703-1299", 4.0, "WEEK 2", 14, "TREATMENT", "2012-09-28", "2012-09-28", 17, 17, ""], [774, "CDISCPILOT01", "SV", "01-703-1299", 5.0, "WEEK 4", 28, "TREATMENT", "2012-10-10", "2012-10-10", 29, 29, ""], [775, "CDISCPILOT01", "SV", "01-703-1299", 6.0, "AMBUL ECG REMOVAL", 30, "TREATMENT", "2012-10-12", "2012-10-12", 31, 31, ""], [776, "CDISCPILOT01", "SV", "01-703-1299", 7.0, "WEEK 6", 42, "TREATMENT", "2012-10-24", "2012-10-24", 43, 43, ""], [777, "CDISCPILOT01", "SV", "01-703-1299", 8.0, "WEEK 8", 56, "TREATMENT", "2012-11-07", "2012-11-07", 57, 57, ""], [778, "CDISCPILOT01", "SV", "01-703-1299", 8.1, "WEEK 10 (T)", 70, "TREATMENT", "2012-11-21", "2012-11-21", 71, 71, ""], [779, "CDISCPILOT01", "SV", "01-703-1299", 9.0, "WEEK 12", 84, "TREATMENT", "2012-12-05", "2012-12-05", 85, 85, ""], [780, "CDISCPILOT01", "SV", "01-703-1299", 9.1, "WEEK 14 (T)", 98, "TREATMENT", "2012-12-19", "2012-12-19", 99, 99, ""], [781, "CDISCPILOT01", "SV", "01-703-1299", 10.0, "WEEK 16", 112, "TREATMENT", "2013-01-02", "2013-01-02", 113, 113, ""], [782, "CDISCPILOT01", "SV", "01-703-1299", 10.1, "WEEK 18 (T)", 126, "TREATMENT", "2013-01-16", "2013-01-16", 127, 127, ""], [783, "CDISCPILOT01", "SV", "01-703-1299", 11.0, "WEEK 20", 140, "TREATMENT", "2013-01-30", "2013-01-30", 141, 141, ""], [784, "CDISCPILOT01", "SV", "01-703-1299", 11.1, "WEEK 22 (T)", 154, "TREATMENT", "2013-02-13", "2013-02-13", 155, 155, ""], [785, "CDISCPILOT01", "SV", "01-703-1299", 12.0, "WEEK 24", 168, "TREATMENT", "2013-03-01", "2013-03-01", 171, 171, ""], [786, "CDISCPILOT01", "SV", "01-703-1299", 13.0, "WEEK 26", 182, "TREATMENT", "2013-03-13", "2013-03-13", 183, 183, ""], [787, "CDISCPILOT01", "SV", "01-703-1299", 13.1, "UNSCHEDULED 13.1", null, "TREATMENT", "2013-03-27", "2013-03-27", 197, 197, "Unplanned visit to complete unscheduled assessments"], [788, "CDISCPILOT01", "SV", "01-703-1335", 1.0, "SCREENING 1", -7, "SCREENING", "2014-02-28", "2014-02-28", -17, -17, ""], [789, "CDISCPILOT01", "SV", "01-703-1335", 1.1, "UNSCHEDULED 1.1", null, "", "2014-02-21", "2014-02-21", -24, -24, "Unplanned visit to complete unscheduled assessments"], [790, "CDISCPILOT01", "SV", "01-703-1335", 2.0, "SCREENING 2", -1, "SCREENING", "2014-03-15", "2014-03-15", -2, -2, ""], [791, "CDISCPILOT01", "SV", "01-703-1335", 3.0, "BASELINE", 1, "TREATMENT", "2014-03-17", "2014-03-17", 1, 1, ""], [792, "CDISCPILOT01", "SV", "01-703-1335", 3.5, "AMBUL ECG PLACEMENT", 13, "TREATMENT", "2014-03-30", "2014-03-30", 14, 14, ""], [793, "CDISCPILOT01", "SV", "01-703-1335", 4.0, "WEEK 2", 14, "TREATMENT", "2014-03-31", "2014-03-31", 15, 15, ""], [794, "CDISCPILOT01", "SV", "01-703-1335", 5.0, "WEEK 4", 28, "TREATMENT", "2014-04-13", "2014-04-13", 28, 28, ""], [795, "CDISCPILOT01", "SV", "01-703-1335", 6.0, "AMBUL ECG REMOVAL", 30, "TREATMENT", "2014-04-15", "2014-04-15", 30, 30, ""], [796, "CDISCPILOT01", "SV", "01-703-1335", 7.0, "WEEK 6", 42, "TREATMENT", "2014-05-24", "2014-05-24", 69, 69, ""], [797, "CDISCPILOT01", "SV", "01-703-1379", 1.0, "SCREENING 1", -7, "SCREENING", "2013-09-12", "2013-09-12", -10, -10, ""], [798, "CDISCPILOT01", "SV", "01-703-1379", 2.0, "SCREENING 2", -1, "SCREENING", "2013-09-20", "2013-09-20", -2, -2, ""], [799, "CDISCPILOT01", "SV", "01-703-1379", 3.0, "BASELINE", 1, "TREATMENT", "2013-09-22", "2013-09-22", 1, 1, ""], [800, "CDISCPILOT01", "SV", "01-703-1379", 3.5, "AMBUL ECG PLACEMENT", 13, "TREATMENT", "2013-10-06", "2013-10-06", 15, 15, ""], [801, "CDISCPILOT01", "SV", "01-703-1379", 4.0, "WEEK 2", 14, "TREATMENT", "2013-10-07", "2013-10-07", 16, 16, ""], [802, "CDISCPILOT01", "SV", "01-703-1379", 5.0, "WEEK 4", 28, "TREATMENT", "2013-10-19", "2013-10-19", 28, 28, ""], [803, "CDISCPILOT01", "SV", "01-703-1379", 6.0, "AMBUL ECG REMOVAL", 30, "TREATMENT", "2013-10-21", "2013-10-21", 30, 30, ""], [804, "CDISCPILOT01", "SV", "01-703-1379", 7.0, "WEEK 6", 42, "TREATMENT", "2013-11-08", "2013-11-08", 48, 48, ""], [805, "CDISCPILOT01", "SV", "01-703-1379", 8.0, "WEEK 8", 56, "TREATMENT", "2013-11-17", "2013-11-17", 57, 57, ""], [806, "CDISCPILOT01", "SV", "01-703-1379", 8.1, "WEEK 10 (T)", 70, "TREATMENT", "2013-12-01", "2013-12-01", 71, 71, ""], [807, "CDISCPILOT01", "SV", "01-703-1379", 9.0, "WEEK 12", 84, "TREATMENT", "2013-12-15", "2013-12-15", 85, 85, ""], [808, "CDISCPILOT01", "SV", "01-703-1379", 9.1, "WEEK 14 (T)", 98, "TREATMENT", "2013-12-29", "2013-12-29", 99, 99, ""], [809, "CDISCPILOT01", "SV", "01-703-1379", 10.0, "WEEK 16", 112, "TREATMENT", "2014-01-11", "2014-01-11", 112, 112, ""], [810, "CDISCPILOT01", "SV", "01-703-1379", 10.1, "WEEK 18 (T)", 126, "TREATMENT", "2014-01-25", "2014-01-25", 126, 126, ""], [811, "CDISCPILOT01", "SV", "01-703-1379", 11.0, "WEEK 20", 140, "TREATMENT", "2014-02-09", "2014-02-09", 141, 141, ""], [812, "CDISCPILOT01", "SV", "01-703-1379", 11.1, "WEEK 22 (T)", 154, "TREATMENT", "2014-02-23", "2014-02-23", 155, 155, ""], [813, "CDISCPILOT01", "SV", "01-703-1379", 11.2, "UNSCHEDULED 11.2", null, "TREATMENT", "2014-02-23", "2014-02-23", 155, 155, "Unplanned visit to complete unscheduled assessments"], [814, "CDISCPILOT01", "SV", "01-703-1379", 12.0, "WEEK 24", 168, "TREATMENT", "2014-03-08", "2014-03-08", 168, 168, ""], [815, "CDISCPILOT01", "SV", "01-703-1379", 13.0, "WEEK 26", 182, "TREATMENT", "2014-03-21", "2014-03-21", 181, 181, ""], [816, "CDISCPILOT01", "SV", "01-703-1396", 1.0, "SCREENING 1", -7, "SCREENING", "2014-02-09", "2014-02-09", null, null, ""], [817, "CDISCPILOT01", "SV", "01-703-1403", 1.0, "SCREENING 1", -7, "SCREENING", "2012-12-05", "2012-12-05", -7, -7, ""], [818, "CDISCPILOT01", "SV", "01-703-1403", 2.0, "SCREENING 2", -1, "SCREENING", "2012-12-10", "2012-12-10", -2, -2, ""], [819, "CDISCPILOT01", "SV", "01-703-1403", 3.0, "BASELINE", 1, "TREATMENT", "2012-12-12", "2012-12-12", 1, 1, ""], [820, "CDISCPILOT01", "SV", "01-703-1403", 4.0, "WEEK 2", 14, "TREATMENT", "2012-12-19", "2012-12-19", 8, 8, ""], [821, "CDISCPILOT01", "SV", "01-703-1403", 101.0, "AE FOLLOW-UP", null, "FOLLOW-UP", "2013-01-08", "2013-01-08", 28, 28, ""], [822, "CDISCPILOT01", "SV", "01-703-1439", 1.0, "SCREENING 1", -7, "SCREENING", "2014-03-04", "2014-03-04", -8, -8, ""], [823, "CDISCPILOT01", "SV", "01-703-1439", 2.0, "SCREENING 2", -1, "SCREENING", "2014-03-10", "2014-03-10", -2, -2, ""], [824, "CDISCPILOT01", "SV", "01-703-1439", 3.0, "BASELINE", 1, "TREATMENT", "2014-03-12", "2014-03-12", 1, 1, ""], [825, "CDISCPILOT01", "SV", "01-703-1439", 3.5, "AMBUL ECG PLACEMENT", 13, "TREATMENT", "2014-03-25", "2014-03-25", 14, 14, ""], [826, "CDISCPILOT01", "SV", "01-703-1439", 4.0, "WEEK 2", 14, "TREATMENT", "2014-03-26", "2014-03-26", 15, 15, ""], [827, "CDISCPILOT01", "SV", "01-703-1439", 5.0, "WEEK 4", 28, "TREATMENT", "2014-04-08", "2014-04-08", 28, 28, ""], [828, "CDISCPILOT01", "SV", "01-703-1439", 6.0, "AMBUL ECG REMOVAL", 30, "TREATMENT", "2014-04-10", "2014-04-10", 30, 30, ""], [829, "CDISCPILOT01", "SV", "01-703-1439", 7.0, "WEEK 6", 42, "TREATMENT", "2014-04-21", "2014-04-21", 41, 41, ""], [830, "CDISCPILOT01", "SV", "01-703-1439", 8.0, "WEEK 8", 56, "TREATMENT", "2014-05-05", "2014-05-05", 55, 55, ""], [831, "CDISCPILOT01", "SV", "01-703-1439", 8.1, "WEEK 10 (T)", 70, "TREATMENT", "2014-05-19", "2014-05-19", 69, 69, ""], [832, "CDISCPILOT01", "SV", "01-703-1439", 9.0, "WEEK 12", 84, "TREATMENT", "2014-06-02", "2014-06-02", 83, 83, ""], [833, "CDISCPILOT01", "SV", "01-703-1439", 9.1, "WEEK 14 (T)", 98, "TREATMENT", "2014-06-16", "2014-06-16", 97, 97, ""], [834, "CDISCPILOT01", "SV", "01-703-1439", 10.0, "WEEK 16", 112, "TREATMENT", "2014-06-30", "2014-06-30", 111, 111, ""], [835, "CDISCPILOT01", "SV", "01-703-1439", 10.1, "WEEK 18 (T)", 126, "TREATMENT", "2014-07-16", "2014-07-16", 127, 127, ""], [836, "CDISCPILOT01", "SV", "01-703-1439", 11.0, "WEEK 20", 140, "TREATMENT", "2014-07-29", "2014-07-29", 140, 140, ""], [837, "CDISCPILOT01", "SV", "01-703-1439", 11.1, "WEEK 22 (T)", 154, "TREATMENT", "2014-08-06", "2014-08-06", 148, 148, ""], [838, "CDISCPILOT01", "SV", "01-703-1439", 12.0, "WEEK 24", 168, "TREATMENT", "2014-08-28", "2014-08-28", 170, 170, ""], [839, "CDISCPILOT01", "SV", "01-703-1439", 13.0, "WEEK 26", 182, "TREATMENT", "2014-09-11", "2014-09-11", 184, 184, ""], [840, "CDISCPILOT01", "SV", "01-704-1008", 1.0, "SCREENING 1", -7, "SCREENING", "2013-01-06", "2013-01-06", -7, -7, ""], [841, "CDISCPILOT01", "SV", "01-704-1008", 1.1, "UNSCHEDULED 1.1", null, "SCREENING", "2013-01-06", "2013-01-06", -7, -7, "Unplanned visit to complete unscheduled assessments"], [842, "CDISCPILOT01", "SV", "01-704-1008", 2.0, "SCREENING 2", -1, "SCREENING", "2013-01-11", "2013-01-11", -2, -2, ""], [843, "CDISCPILOT01", "SV", "01-704-1008", 3.0, "BASELINE", 1, "TREATMENT", "2013-01-13", "2013-01-13", 1, 1, ""], [844, "CDISCPILOT01", "SV", "01-704-1008", 3.5, "AMBUL ECG PLACEMENT", 13, "TREATMENT", "2013-01-27", "2013-01-27", 15, 15, ""], [845, "CDISCPILOT01", "SV", "01-704-1008", 4.0, "WEEK 2", 14, "TREATMENT", "2013-01-28", "2013-01-28", 16, 16, ""], [846, "CDISCPILOT01", "SV", "01-704-1008", 5.0, "WEEK 4", 28, "TREATMENT", "2013-02-09", "2013-02-09", 28, 28, ""], [847, "CDISCPILOT01", "SV", "01-704-1008", 6.0, "AMBUL ECG REMOVAL", 30, "TREATMENT", "2013-02-11", "2013-02-11", 30, 30, ""], [848, "CDISCPILOT01", "SV", "01-704-1008", 7.0, "WEEK 6", 42, "TREATMENT", "2013-02-25", "2013-02-25", 44, 44, ""], [849, "CDISCPILOT01", "SV", "01-704-1009", 1.0, "SCREENING 1", -7, "SCREENING", "2013-08-20", "2013-08-20", -7, -7, ""], [850, "CDISCPILOT01", "SV", "01-704-1009", 2.0, "SCREENING 2", -1, "SCREENING", "2013-08-24", "2013-08-24", -3, -3, ""], [851, "CDISCPILOT01", "SV", "01-704-1009", 3.0, "BASELINE", 1, "TREATMENT", "2013-08-27", "2013-08-27", 1, 1, ""], [852, "CDISCPILOT01", "SV", "01-704-1009", 3.5, "AMBUL ECG PLACEMENT", 13, "TREATMENT", "2013-09-13", "2013-09-13", 18, 18, ""], [853, "CDISCPILOT01", "SV", "01-704-1009", 4.0, "WEEK 2", 14, "TREATMENT", "2013-09-14", "2013-09-14", 19, 19, ""], [854, "CDISCPILOT01", "SV", "01-704-1009", 5.0, "WEEK 4", 28, "TREATMENT", "2013-10-02", "2013-10-02", 37, 37, ""], [855, "CDISCPILOT01", "SV", "01-704-1010", 1.0, "SCREENING 1", -7, "SCREENING", "2014-02-08", "2014-02-08", -13, -13, ""], [856, "CDISCPILOT01", "SV", "01-704-1010", 2.0, "SCREENING 2", -1, "SCREENING", "2014-02-19", "2014-02-19", -2, -2, ""], [857, "CDISCPILOT01", "SV", "01-704-1010", 3.0, "BASELINE", 1, "TREATMENT", "2014-02-21", "2014-02-21", 1, 1, ""], [858, "CDISCPILOT01", "SV", "01-704-1010", 3.5, "AMBUL ECG PLACEMENT", 13, "TREATMENT", "2014-03-07", "2014-03-07", 15, 15, ""], [859, "CDISCPILOT01", "SV", "01-704-1010", 4.0, "WEEK 2", 14, "TREATMENT", "2014-03-08", "2014-03-08", 16, 16, ""], [860, "CDISCPILOT01", "SV", "01-704-1010", 5.0, "WEEK 4", 28, "TREATMENT", "2014-03-23", "2014-03-23", 31, 31, ""], [861, "CDISCPILOT01", "SV", "01-704-1010", 6.0, "AMBUL ECG REMOVAL", 30, "TREATMENT", "2014-03-26", "2014-03-26", 34, 34, ""], [862, "CDISCPILOT01", "SV", "01-704-1010", 7.0, "WEEK 6", 42, "TREATMENT", "2014-04-11", "2014-04-11", 50, 50, ""], [863, "CDISCPILOT01", "SV", "01-704-1010", 8.0, "WEEK 8", 56, "TREATMENT", "2014-04-24", "2014-04-24", 63, 63, ""], [864, "CDISCPILOT01", "SV", "01-704-1010", 8.1, "WEEK 10 (T)", 70, "TREATMENT", "2014-05-08", "2014-05-08", 77, 77, ""], [865, "CDISCPILOT01", "SV", "01-704-1010", 9.0, "WEEK 12", 84, "TREATMENT", "2014-05-16", "2014-05-16", 85, 85, ""], [866, "CDISCPILOT01", "SV", "01-704-1010", 9.1, "WEEK 14 (T)", 98, "TREATMENT", "2014-05-30", "2014-05-30", 99, 99, ""], [867, "CDISCPILOT01", "SV", "01-704-1010", 9.2, "UNSCHEDULED 9.2", null, "TREATMENT", "2014-05-30", "2014-05-30", 99, 99, "Unplanned visit to complete unscheduled assessments"], [868, "CDISCPILOT01", "SV", "01-704-1010", 10.0, "WEEK 16", 112, "TREATMENT", "2014-06-13", "2014-06-13", 113, 113, ""], [869, "CDISCPILOT01", "SV", "01-704-1010", 10.1, "WEEK 18 (T)", 126, "TREATMENT", "2014-06-27", "2014-06-27", 127, 127, ""], [870, "CDISCPILOT01", "SV", "01-704-1010", 11.0, "WEEK 20", 140, "TREATMENT", "2014-07-09", "2014-07-09", 139, 139, ""], [871, "CDISCPILOT01", "SV", "01-704-1017", 1.0, "SCREENING 1", -7, "SCREENING", "2013-09-20", "2013-09-20", -16, -16, ""], [872, "CDISCPILOT01", "SV", "01-704-1017", 2.0, "SCREENING 2", -1, "SCREENING", "2013-09-27", "2013-09-27", -9, -9, ""], [873, "CDISCPILOT01", "SV", "01-704-1017", 3.0, "BASELINE", 1, "TREATMENT", "2013-10-06", "2013-10-06", 1, 1, ""], [874, "CDISCPILOT01", "SV", "01-704-1017", 3.5, "AMBUL ECG PLACEMENT", 13, "TREATMENT", "2013-10-18", "2013-10-18", 13, 13, ""], [875, "CDISCPILOT01", "SV", "01-704-1017", 4.0, "WEEK 2", 14, "TREATMENT", "2013-10-19", "2013-10-19", 14, 14, ""], [876, "CDISCPILOT01", "SV", "01-704-1017", 5.0, "WEEK 4", 28, "TREATMENT", "2013-11-09", "2013-11-09", 35, 35, ""], [877, "CDISCPILOT01", "SV", "01-704-1017", 6.0, "AMBUL ECG REMOVAL", 30, "TREATMENT", "2013-11-11", "2013-11-11", 37, 37, ""], [878, "CDISCPILOT01", "SV", "01-704-1017", 7.0, "WEEK 6", 42, "TREATMENT", "2013-11-24", "2013-11-24", 50, 50, ""], [879, "CDISCPILOT01", "SV", "01-704-1017", 101.0, "AE FOLLOW-UP", null, "FOLLOW-UP", "2013-12-06", "2013-12-06", 62, 62, ""], [880, "CDISCPILOT01", "SV", "01-704-1025", 1.0, "SCREENING 1", -7, "SCREENING", "2013-09-18", "2013-09-18", -9, -9, ""], [881, "CDISCPILOT01", "SV", "01-704-1025", 2.0, "SCREENING 2", -1, "SCREENING", "2013-09-25", "2013-09-25", -2, -2, ""], [882, "CDISCPILOT01", "SV", "01-704-1025", 3.0, "BASELINE", 1, "TREATMENT", "2013-09-27", "2013-09-27", 1, 1, ""], [883, "CDISCPILOT01", "SV", "01-704-1025", 3.5, "AMBUL ECG PLACEMENT", 13, "TREATMENT", "2013-10-10", "2013-10-10", 14, 14, ""], [884, "CDISCPILOT01", "SV", "01-704-1025", 4.0, "WEEK 2", 14, "TREATMENT", "2013-10-11", "2013-10-11", 15, 15, ""], [885, "CDISCPILOT01", "SV", "01-704-1025", 5.0, "WEEK 4", 28, "TREATMENT", "2013-10-25", "2013-10-25", 29, 29, ""], [886, "CDISCPILOT01", "SV", "01-704-1025", 5.1, "UNSCHEDULED 5.1", null, "TREATMENT", "2013-10-28", "2013-10-28", 32, 32, "Unplanned visit to complete unscheduled assessments"], [887, "CDISCPILOT01", "SV", "01-704-1025", 6.0, "AMBUL ECG REMOVAL", 30, "TREATMENT", "2013-11-29", "2013-11-29", 64, 64, ""], [888, "CDISCPILOT01", "SV", "01-704-1065", 1.0, "SCREENING 1", -7, "SCREENING", "2013-10-17", "2013-10-17", -7, -7, ""], [889, "CDISCPILOT01", "SV", "01-704-1065", 2.0, "SCREENING 2", -1, "SCREENING", "2013-10-22", "2013-10-22", -2, -2, ""], [890, "CDISCPILOT01", "SV", "01-704-1065", 3.0, "BASELINE", 1, "TREATMENT", "2013-10-24", "2013-10-24", 1, 1, ""], [891, "CDISCPILOT01", "SV", "01-704-1065", 3.5, "AMBUL ECG PLACEMENT", 13, "TREATMENT", "2013-11-06", "2013-11-06", 14, 14, ""], [892, "CDISCPILOT01", "SV", "01-704-1065", 4.0, "WEEK 2", 14, "TREATMENT", "2013-11-07", "2013-11-07", 15, 15, ""], [893, "CDISCPILOT01", "SV", "01-704-1065", 5.0, "WEEK 4", 28, "TREATMENT", "2013-11-25", "2013-11-25", 33, 33, ""], [894, "CDISCPILOT01", "SV", "01-704-1065", 6.0, "AMBUL ECG REMOVAL", 30, "TREATMENT", "2013-11-27", "2013-11-27", 35, 35, ""], [895, "CDISCPILOT01", "SV", "01-704-1065", 7.0, "WEEK 6", 42, "TREATMENT", "2013-12-06", "2013-12-06", 44, 44, ""], [896, "CDISCPILOT01", "SV", "01-704-1065", 8.0, "WEEK 8", 56, "TREATMENT", "2013-12-20", "2013-12-20", 58, 58, ""], [897, "CDISCPILOT01", "SV", "01-704-1065", 9.0, "WEEK 12", 84, "TREATMENT", "2013-12-24", "2013-12-24", 62, 62, ""], [898, "CDISCPILOT01", "SV", "01-704-1065", 101.0, "AE FOLLOW-UP", null, "FOLLOW-UP", "2014-02-17", "2014-02-17", 117, 117, ""], [899, "CDISCPILOT01", "SV", "01-704-1074", 1.0, "SCREENING 1", -7, "SCREENING", "2014-01-19", "2014-01-19", -3, -3, ""], [900, "CDISCPILOT01", "SV", "01-704-1074", 2.0, "SCREENING 2", -1, "SCREENING", "2014-01-20", "2014-01-20", -2, -2, ""], [901, "CDISCPILOT01", "SV", "01-704-1074", 3.0, "BASELINE", 1, "TREATMENT", "2014-01-22", "2014-01-22", 1, 1, ""], [902, "CDISCPILOT01", "SV", "01-704-1074", 3.5, "AMBUL ECG PLACEMENT", 13, "TREATMENT", "2014-02-08", "2014-02-08", 18, 18, ""], [903, "CDISCPILOT01", "SV", "01-704-1074", 4.0, "WEEK 2", 14, "TREATMENT", "2014-02-09", "2014-02-09", 19, 19, ""], [904, "CDISCPILOT01", "SV", "01-704-1074", 5.0, "WEEK 4", 28, "TREATMENT", "2014-02-22", "2014-02-22", 32, 32, ""], [905, "CDISCPILOT01", "SV", "01-704-1074", 6.0, "AMBUL ECG REMOVAL", 30, "TREATMENT", "2014-02-24", "2014-02-24", 34, 34, ""], [906, "CDISCPILOT01", "SV", "01-704-1074", 7.0, "WEEK 6", 42, "TREATMENT", "2014-03-09", "2014-03-09", 47, 47, ""], [907, "CDISCPILOT01", "SV", "01-704-1074", 8.0, "WEEK 8", 56, "TREATMENT", "2014-03-31", "2014-03-31", 69, 69, ""], [908, "CDISCPILOT01", "SV", "01-704-1093", 1.0, "SCREENING 1", -7, "SCREENING", "2013-02-22", "2013-02-22", -21, -21, ""], [909, "CDISCPILOT01", "SV", "01-704-1093", 1.1, "UNSCHEDULED 1.1", null, "SCREENING", "2013-02-22", "2013-02-22", -21, -21, "Unplanned visit to complete unscheduled assessments"], [910, "CDISCPILOT01", "SV", "01-704-1093", 1.2, "UNSCHEDULED 1.2", null, "SCREENING", "2013-03-02", "2013-03-02", -13, -13, "Unplanned visit to complete unscheduled assessments"], [911, "CDISCPILOT01", "SV", "01-704-1093", 2.0, "SCREENING 2", -1, "SCREENING", "2013-03-13", "2013-03-13", -2, -2, ""], [912, "CDISCPILOT01", "SV", "01-704-1093", 3.0, "BASELINE", 1, "TREATMENT", "2013-03-15", "2013-03-15", 1, 1, ""], [913, "CDISCPILOT01", "SV", "01-704-1093", 3.5, "AMBUL ECG PLACEMENT", 13, "TREATMENT", "2013-03-29", "2013-03-29", 15, 15, ""], [914, "CDISCPILOT01", "SV", "01-704-1093", 4.0, "WEEK 2", 14, "TREATMENT", "2013-03-30", "2013-03-30", 16, 16, ""], [915, "CDISCPILOT01", "SV", "01-704-1093", 5.0, "WEEK 4", 28, "TREATMENT", "2013-04-12", "2013-04-12", 29, 29, ""], [916, "CDISCPILOT01", "SV", "01-704-1093", 6.0, "AMBUL ECG REMOVAL", 30, "TREATMENT", "2013-04-17", "2013-04-17", 34, 34, ""], [917, "CDISCPILOT01", "SV", "01-704-1093", 7.0, "WEEK 6", 42, "TREATMENT", "2013-04-25", "2013-04-25", 42, 42, ""], [918, "CDISCPILOT01", "SV", "01-704-1093", 8.0, "WEEK 8", 56, "TREATMENT", "2013-05-11", "2013-05-11", 58, 58, ""], [919, "CDISCPILOT01", "SV", "01-704-1093", 8.1, "WEEK 10 (T)", 70, "TREATMENT", "2013-05-23", "2013-05-23", 70, 70, ""], [920, "CDISCPILOT01", "SV", "01-704-1093", 9.0, "WEEK 12", 84, "TREATMENT", "2013-06-07", "2013-06-07", 85, 85, ""], [921, "CDISCPILOT01", "SV", "01-704-1093", 10.0, "WEEK 16", 112, "TREATMENT", "2013-06-20", "2013-06-20", 98, 98, ""], [922, "CDISCPILOT01", "SV", "01-704-1093", 101.0, "AE FOLLOW-UP", null, "FOLLOW-UP", "2013-07-26", "2013-07-26", 134, 134, ""], [923, "CDISCPILOT01", "SV", "01-704-1093", 201.0, "RETRIEVAL", 168, "FOLLOW-UP", "2013-12-25", "2013-12-25", 286, 286, ""], [924, "CDISCPILOT01", "SV", "01-704-1114", 1.0, "SCREENING 1", -7, "SCREENING", "2013-01-09", "2013-01-09", -14, -14, ""], [925, "CDISCPILOT01", "SV", "01-704-1114", 2.0, "SCREENING 2", -1, "SCREENING", "2013-01-21", "2013-01-21", -2, -2, ""], [926, "CDISCPILOT01", "SV", "01-704-1114", 3.0, "BASELINE", 1, "TREATMENT", "2013-01-23", "2013-01-23", 1, 1, ""], [927, "CDISCPILOT01", "SV", "01-704-1114", 3.5, "AMBUL ECG PLACEMENT", 13, "TREATMENT", "2013-02-02", "2013-02-02", 11, 11, ""], [928, "CDISCPILOT01", "SV", "01-704-1114", 4.0, "WEEK 2", 14, "TREATMENT", "2013-02-03", "2013-02-03", 12, 12, ""], [929, "CDISCPILOT01", "SV", "01-704-1114", 5.0, "WEEK 4", 28, "TREATMENT", "2013-02-18", "2013-02-18", 27, 27, ""], [930, "CDISCPILOT01", "SV", "01-704-1114", 6.0, "AMBUL ECG REMOVAL", 30, "TREATMENT", "2013-02-20", "2013-02-20", 29, 29, ""], [931, "CDISCPILOT01", "SV", "01-704-1114", 7.0, "WEEK 6", 42, "TREATMENT", "2013-03-13", "2013-03-13", 50, 50, ""], [932, "CDISCPILOT01", "SV", "01-704-1114", 8.0, "WEEK 8", 56, "TREATMENT", "2013-03-26", "2013-03-26", 63, 63, ""], [933, "CDISCPILOT01", "SV", "01-704-1114", 8.1, "WEEK 10 (T)", 70, "TREATMENT", "2013-04-03", "2013-04-03", 71, 71, ""], [934, "CDISCPILOT01", "SV", "01-704-1114", 9.0, "WEEK 12", 84, "TREATMENT", "2013-04-17", "2013-04-17", 85, 85, ""], [935, "CDISCPILOT01", "SV", "01-704-1114", 9.1, "WEEK 14 (T)", 98, "TREATMENT", "2013-04-29", "2013-04-29", 97, 97, ""], [936, "CDISCPILOT01", "SV", "01-704-1114", 10.0, "WEEK 16", 112, "TREATMENT", "2013-05-14", "2013-05-14", 112, 112, ""], [937, "CDISCPILOT01", "SV", "01-704-1114", 10.1, "WEEK 18 (T)", 126, "TREATMENT", "2013-05-28", "2013-05-28", 126, 126, ""], [938, "CDISCPILOT01", "SV", "01-704-1114", 11.0, "WEEK 20", 140, "TREATMENT", "2013-06-16", "2013-06-16", 145, 145, ""], [939, "CDISCPILOT01", "SV", "01-704-1114", 12.0, "WEEK 24", 168, "TREATMENT", "2013-07-08", "2013-07-08", 167, 167, ""], [940, "CDISCPILOT01", "SV", "01-704-1120", 1.0, "SCREENING 1", -7, "SCREENING", "2013-11-18", "2013-11-18", -14, -14, ""], [941, "CDISCPILOT01", "SV", "01-704-1120", 2.0, "SCREENING 2", -1, "SCREENING", "2013-11-30", "2013-11-30", -2, -2, ""], [942, "CDISCPILOT01", "SV", "01-704-1120", 3.0, "BASELINE", 1, "TREATMENT", "2013-12-02", "2013-12-02", 1, 1, ""], [943, "CDISCPILOT01", "SV", "01-704-1120", 3.5, "AMBUL ECG PLACEMENT", 13, "TREATMENT", "2013-12-14", "2013-12-14", 13, 13, ""], [944, "CDISCPILOT01", "SV", "01-704-1120", 4.0, "WEEK 2", 14, "TREATMENT", "2013-12-15", "2013-12-15", 14, 14, ""], [945, "CDISCPILOT01", "SV", "01-704-1120", 5.0, "WEEK 4", 28, "TREATMENT", "2013-12-29", "2013-12-29", 28, 28, ""], [946, "CDISCPILOT01", "SV", "01-704-1120", 6.0, "AMBUL ECG REMOVAL", 30, "TREATMENT", "2013-12-31", "2013-12-31", 30, 30, ""], [947, "CDISCPILOT01", "SV", "01-704-1120", 7.0, "WEEK 6", 42, "TREATMENT", "2014-01-13", "2014-01-13", 43, 43, ""], [948, "CDISCPILOT01", "SV", "01-704-1120", 8.0, "WEEK 8", 56, "TREATMENT", "2014-01-27", "2014-01-27", 57, 57, ""], [949, "CDISCPILOT01", "SV", "01-704-1120", 9.0, "WEEK 12", 84, "TREATMENT", "2014-02-03", "2014-02-03", 64, 64, ""], [950, "CDISCPILOT01", "SV", "01-704-1120", 101.0, "AE FOLLOW-UP", null, "FOLLOW-UP", "2014-03-10", "2014-03-10", 99, 99, ""], [951, "CDISCPILOT01", "SV", "01-704-1127", 1.0, "SCREENING 1", -7, "SCREENING", "2013-09-16", "2013-09-16", -16, -16, ""], [952, "CDISCPILOT01", "SV", "01-704-1127", 2.0, "SCREENING 2", -1, "SCREENING", "2013-09-30", "2013-09-30", -2, -2, ""], [953, "CDISCPILOT01", "SV", "01-704-1127", 3.0, "BASELINE", 1, "TREATMENT", "2013-10-02", "2013-10-02", 1, 1, ""], [954, "CDISCPILOT01", "SV", "01-704-1127", 3.5, "AMBUL ECG PLACEMENT", 13, "TREATMENT", "2013-10-15", "2013-10-15", 14, 14, ""], [955, "CDISCPILOT01", "SV", "01-704-1127", 4.0, "WEEK 2", 14, "TREATMENT", "2013-10-16", "2013-10-16", 15, 15, ""], [956, "CDISCPILOT01", "SV", "01-704-1127", 5.0, "WEEK 4", 28, "TREATMENT", "2013-10-30", "2013-10-30", 29, 29, ""], [957, "CDISCPILOT01", "SV", "01-704-1127", 6.0, "AMBUL ECG REMOVAL", 30, "TREATMENT", "2013-11-03", "2013-11-03", 33, 33, ""], [958, "CDISCPILOT01", "SV", "01-704-1127", 7.0, "WEEK 6", 42, "TREATMENT", "2013-11-13", "2013-11-13", 43, 43, ""], [959, "CDISCPILOT01", "SV", "01-704-1127", 8.0, "WEEK 8", 56, "TREATMENT", "2013-11-26", "2013-11-26", 56, 56, ""], [960, "CDISCPILOT01", "SV", "01-704-1127", 8.1, "WEEK 10 (T)", 70, "TREATMENT", "2013-12-10", "2013-12-10", 70, 70, ""], [961, "CDISCPILOT01", "SV", "01-704-1127", 9.0, "WEEK 12", 84, "TREATMENT", "2013-12-25", "2013-12-25", 85, 85, ""], [962, "CDISCPILOT01", "SV", "01-704-1127", 9.1, "WEEK 14 (T)", 98, "TREATMENT", "2014-01-08", "2014-01-08", 99, 99, ""], [963, "CDISCPILOT01", "SV", "01-704-1127", 10.0, "WEEK 16", 112, "TREATMENT", "2014-01-21", "2014-01-21", 112, 112, ""], [964, "CDISCPILOT01", "SV", "01-704-1127", 10.1, "WEEK 18 (T)", 126, "TREATMENT", "2014-02-05", "2014-02-05", 127, 127, ""], [965, "CDISCPILOT01", "SV", "01-704-1127", 11.0, "WEEK 20", 140, "TREATMENT", "2014-02-17", "2014-02-17", 139, 139, ""], [966, "CDISCPILOT01", "SV", "01-704-1127", 11.1, "WEEK 22 (T)", 154, "TREATMENT", "2014-03-05", "2014-03-05", 155, 155, ""], [967, "CDISCPILOT01", "SV", "01-704-1127", 12.0, "WEEK 24", 168, "TREATMENT", "2014-03-17", "2014-03-17", 167, 167, ""], [968, "CDISCPILOT01", "SV", "01-704-1127", 13.0, "WEEK 26", 182, "TREATMENT", "2014-03-31", "2014-03-31", 181, 181, ""], [969, "CDISCPILOT01", "SV", "01-704-1135", 1.0, "SCREENING 1", -7, "SCREENING", "2013-10-23", "2013-10-23", -8, -8, ""], [970, "CDISCPILOT01", "SV", "01-704-1135", 2.0, "SCREENING 2", -1, "SCREENING", "2013-10-29", "2013-10-29", -2, -2, ""], [971, "CDISCPILOT01", "SV", "01-704-1135", 3.0, "BASELINE", 1, "TREATMENT", "2013-10-31", "2013-10-31", 1, 1, ""], [972, "CDISCPILOT01", "SV", "01-704-1135", 3.5, "AMBUL ECG PLACEMENT", 13, "TREATMENT", "2013-11-13", "2013-11-13", 14, 14, ""], [973, "CDISCPILOT01", "SV", "01-704-1135", 4.0, "WEEK 2", 14, "TREATMENT", "2013-11-14", "2013-11-14", 15, 15, ""], [974, "CDISCPILOT01", "SV", "01-704-1135", 5.0, "WEEK 4", 28, "TREATMENT", "2013-11-26", "2013-11-26", 27, 27, ""], [975, "CDISCPILOT01", "SV", "01-704-1135", 6.0, "AMBUL ECG REMOVAL", 30, "TREATMENT", "2013-11-28", "2013-11-28", 29, 29, ""], [976, "CDISCPILOT01", "SV", "01-704-1135", 7.0, "WEEK 6", 42, "TREATMENT", "2013-12-11", "2013-12-11", 42, 42, ""], [977, "CDISCPILOT01", "SV", "01-704-1135", 8.0, "WEEK 8", 56, "TREATMENT", "2013-12-25", "2013-12-25", 56, 56, ""], [978, "CDISCPILOT01", "SV", "01-704-1135", 8.1, "WEEK 10 (T)", 70, "TREATMENT", "2014-01-09", "2014-01-09", 71, 71, ""], [979, "CDISCPILOT01", "SV", "01-704-1135", 9.0, "WEEK 12", 84, "TREATMENT", "2014-01-22", "2014-01-22", 84, 84, ""], [980, "CDISCPILOT01", "SV", "01-704-1135", 9.1, "WEEK 14 (T)", 98, "TREATMENT", "2014-01-23", "2014-01-23", 85, 85, ""], [981, "CDISCPILOT01", "SV", "01-704-1135", 10.0, "WEEK 16", 112, "TREATMENT", "2014-02-19", "2014-02-19", 112, 112, ""], [982, "CDISCPILOT01", "SV", "01-704-1135", 10.1, "WEEK 18 (T)", 126, "TREATMENT", "2014-03-08", "2014-03-08", 129, 129, ""], [983, "CDISCPILOT01", "SV", "01-704-1135", 11.0, "WEEK 20", 140, "TREATMENT", "2014-03-26", "2014-03-26", 147, 147, ""], [984, "CDISCPILOT01", "SV", "01-704-1135", 11.1, "WEEK 22 (T)", 154, "TREATMENT", "2014-04-03", "2014-04-03", 155, 155, ""], [985, "CDISCPILOT01", "SV", "01-704-1135", 12.0, "WEEK 24", 168, "TREATMENT", "2014-05-01", "2014-05-01", 183, 183, ""], [986, "CDISCPILOT01", "SV", "01-704-1135", 13.0, "WEEK 26", 182, "TREATMENT", "2014-05-16", "2014-05-16", 198, 198, ""], [987, "CDISCPILOT01", "SV", "01-704-1164", 1.0, "SCREENING 1", -7, "SCREENING", "2012-09-11", "2012-09-11", -8, -8, ""], [988, "CDISCPILOT01", "SV", "01-704-1164", 2.0, "SCREENING 2", -1, "SCREENING", "2012-09-16", "2012-09-16", -3, -3, ""], [989, "CDISCPILOT01", "SV", "01-704-1164", 3.0, "BASELINE", 1, "TREATMENT", "2012-09-19", "2012-09-19", 1, 1, ""], [990, "CDISCPILOT01", "SV", "01-704-1164", 3.5, "AMBUL ECG PLACEMENT", 13, "TREATMENT", "2012-10-03", "2012-10-03", 15, 15, ""], [991, "CDISCPILOT01", "SV", "01-704-1164", 4.0, "WEEK 2", 14, "TREATMENT", "2012-10-04", "2012-10-04", 16, 16, ""], [992, "CDISCPILOT01", "SV", "01-704-1164", 5.0, "WEEK 4", 28, "TREATMENT", "2012-10-21", "2012-10-21", 33, 33, ""], [993, "CDISCPILOT01", "SV", "01-704-1164", 6.0, "AMBUL ECG REMOVAL", 30, "TREATMENT", "2012-10-23", "2012-10-23", 35, 35, ""], [994, "CDISCPILOT01", "SV", "01-704-1164", 7.0, "WEEK 6", 42, "TREATMENT", "2012-11-01", "2012-11-01", 44, 44, ""], [995, "CDISCPILOT01", "SV", "01-704-1164", 8.0, "WEEK 8", 56, "TREATMENT", "2012-11-15", "2012-11-15", 58, 58, ""], [996, "CDISCPILOT01", "SV", "01-704-1164", 8.1, "WEEK 10 (T)", 70, "TREATMENT", "2012-11-28", "2012-11-28", 71, 71, ""], [997, "CDISCPILOT01", "SV", "01-704-1164", 9.0, "WEEK 12", 84, "TREATMENT", "2012-12-16", "2012-12-16", 89, 89, ""], [998, "CDISCPILOT01", "SV", "01-704-1164", 9.1, "WEEK 14 (T)", 98, "TREATMENT", "2012-12-26", "2012-12-26", 99, 99, ""], [999, "CDISCPILOT01", "SV", "01-704-1164", 10.0, "WEEK 16", 112, "TREATMENT", "2013-01-14", "2013-01-14", 118, 118, ""], [1000, "CDISCPILOT01", "SV", "01-704-1164", 10.1, "WEEK 18 (T)", 126, "TREATMENT", "2013-01-23", "2013-01-23", 127, 127, ""], [1001, "CDISCPILOT01", "SV", "01-704-1164", 11.0, "WEEK 20", 140, "TREATMENT", "2013-02-14", "2013-02-14", 149, 149, ""], [1002, "CDISCPILOT01", "SV", "01-704-1164", 11.1, "WEEK 22 (T)", 154, "TREATMENT", "2013-02-20", "2013-02-20", 155, 155, ""], [1003, "CDISCPILOT01", "SV", "01-704-1164", 12.0, "WEEK 24", 168, "TREATMENT", "2013-03-17", "2013-03-17", 180, 180, ""], [1004, "CDISCPILOT01", "SV", "01-704-1164", 13.0, "WEEK 26", 182, "TREATMENT", "2013-04-04", "2013-04-04", 198, 198, ""], [1005, "CDISCPILOT01", "SV", "01-704-1218", 1.0, "SCREENING 1", -7, "SCREENING", "2012-11-11", "2012-11-11", -8, -8, ""], [1006, "CDISCPILOT01", "SV", "01-704-1218", 1.1, "UNSCHEDULED 1.1", null, "", "2012-10-11", "2012-10-11", -39, -39, "Unplanned visit to complete unscheduled assessments"], [1007, "CDISCPILOT01", "SV", "01-704-1218", 1.2, "UNSCHEDULED 1.2", null, "SCREENING", "2012-11-11", "2012-11-11", -8, -8, "Unplanned visit to complete unscheduled assessments"], [1008, "CDISCPILOT01", "SV", "01-704-1218", 2.0, "SCREENING 2", -1, "SCREENING", "2012-11-17", "2012-11-17", -2, -2, ""], [1009, "CDISCPILOT01", "SV", "01-704-1218", 3.0, "BASELINE", 1, "TREATMENT", "2012-11-19", "2012-11-19", 1, 1, ""], [1010, "CDISCPILOT01", "SV", "01-704-1218", 3.5, "AMBUL ECG PLACEMENT", 13, "TREATMENT", "2012-12-02", "2012-12-02", 14, 14, ""], [1011, "CDISCPILOT01", "SV", "01-704-1218", 4.0, "WEEK 2", 14, "TREATMENT", "2012-12-03", "2012-12-03", 15, 15, ""], [1012, "CDISCPILOT01", "SV", "01-704-1218", 5.0, "WEEK 4", 28, "TREATMENT", "2012-12-15", "2012-12-15", 27, 27, ""], [1013, "CDISCPILOT01", "SV", "01-704-1218", 6.0, "AMBUL ECG REMOVAL", 30, "TREATMENT", "2012-12-17", "2012-12-17", 29, 29, ""], [1014, "CDISCPILOT01", "SV", "01-704-1218", 7.0, "WEEK 6", 42, "TREATMENT", "2012-12-30", "2012-12-30", 42, 42, ""], [1015, "CDISCPILOT01", "SV", "01-704-1218", 8.0, "WEEK 8", 56, "TREATMENT", "2013-01-14", "2013-01-14", 57, 57, ""], [1016, "CDISCPILOT01", "SV", "01-704-1218", 8.1, "WEEK 10 (T)", 70, "TREATMENT", "2013-01-25", "2013-01-25", 68, 68, ""], [1017, "CDISCPILOT01", "SV", "01-704-1218", 9.0, "WEEK 12", 84, "TREATMENT", "2013-02-11", "2013-02-11", 85, 85, ""], [1018, "CDISCPILOT01", "SV", "01-704-1218", 9.1, "WEEK 14 (T)", 98, "TREATMENT", "2013-02-27", "2013-02-27", 101, 101, ""], [1019, "CDISCPILOT01", "SV", "01-704-1218", 10.0, "WEEK 16", 112, "TREATMENT", "2013-03-18", "2013-03-18", 120, 120, ""], [1020, "CDISCPILOT01", "SV", "01-704-1218", 10.1, "WEEK 18 (T)", 126, "TREATMENT", "2013-03-28", "2013-03-28", 130, 130, ""], [1021, "CDISCPILOT01", "SV", "01-704-1218", 11.0, "WEEK 20", 140, "TREATMENT", "2013-04-14", "2013-04-14", 147, 147, ""], [1022, "CDISCPILOT01", "SV", "01-704-1218", 11.1, "WEEK 22 (T)", 154, "TREATMENT", "2013-04-22", "2013-04-22", 155, 155, ""], [1023, "CDISCPILOT01", "SV", "01-704-1218", 12.0, "WEEK 24", 168, "TREATMENT", "2013-05-13", "2013-05-13", 176, 176, ""], [1024, "CDISCPILOT01", "SV", "01-704-1218", 13.0, "WEEK 26", 182, "TREATMENT", "2013-05-27", "2013-05-27", 190, 190, ""], [1025, "CDISCPILOT01", "SV", "01-704-1233", 1.0, "SCREENING 1", -7, "SCREENING", "2013-03-08", "2013-03-08", -13, -13, ""], [1026, "CDISCPILOT01", "SV", "01-704-1233", 2.0, "SCREENING 2", -1, "SCREENING", "2013-03-19", "2013-03-19", -2, -2, ""], [1027, "CDISCPILOT01", "SV", "01-704-1233", 3.0, "BASELINE", 1, "TREATMENT", "2013-03-21", "2013-03-21", 1, 1, ""], [1028, "CDISCPILOT01", "SV", "01-704-1233", 3.5, "AMBUL ECG PLACEMENT", 13, "TREATMENT", "2013-04-03", "2013-04-03", 14, 14, ""], [1029, "CDISCPILOT01", "SV", "01-704-1233", 4.0, "WEEK 2", 14, "TREATMENT", "2013-04-04", "2013-04-04", 15, 15, ""], [1030, "CDISCPILOT01", "SV", "01-704-1233", 5.0, "WEEK 4", 28, "TREATMENT", "2013-04-16", "2013-04-16", 27, 27, ""], [1031, "CDISCPILOT01", "SV", "01-704-1233", 6.0, "AMBUL ECG REMOVAL", 30, "TREATMENT", "2013-04-18", "2013-04-18", 29, 29, ""], [1032, "CDISCPILOT01", "SV", "01-704-1233", 7.0, "WEEK 6", 42, "TREATMENT", "2013-05-01", "2013-05-01", 42, 42, ""], [1033, "CDISCPILOT01", "SV", "01-704-1233", 8.0, "WEEK 8", 56, "TREATMENT", "2013-05-16", "2013-05-16", 57, 57, ""], [1034, "CDISCPILOT01", "SV", "01-704-1233", 8.1, "WEEK 10 (T)", 70, "TREATMENT", "2013-05-30", "2013-05-30", 71, 71, ""], [1035, "CDISCPILOT01", "SV", "01-704-1233", 9.0, "WEEK 12", 84, "TREATMENT", "2013-06-13", "2013-06-13", 85, 85, ""], [1036, "CDISCPILOT01", "SV", "01-704-1233", 9.1, "WEEK 14 (T)", 98, "TREATMENT", "2013-06-27", "2013-06-27", 99, 99, ""], [1037, "CDISCPILOT01", "SV", "01-704-1233", 10.0, "WEEK 16", 112, "TREATMENT", "2013-07-11", "2013-07-11", 113, 113, ""], [1038, "CDISCPILOT01", "SV", "01-704-1233", 11.0, "WEEK 20", 140, "TREATMENT", "2013-07-14", "2013-07-14", 116, 116, ""], [1039, "CDISCPILOT01", "SV", "01-704-1241", 1.0, "SCREENING 1", -7, "SCREENING", "2013-08-14", "2013-08-14", -11, -11, ""], [1040, "CDISCPILOT01", "SV", "01-704-1241", 2.0, "SCREENING 2", -1, "SCREENING", "2013-08-23", "2013-08-23", -2, -2, ""], [1041, "CDISCPILOT01", "SV", "01-704-1241", 3.0, "BASELINE", 1, "TREATMENT", "2013-08-25", "2013-08-25", 1, 1, ""], [1042, "CDISCPILOT01", "SV", "01-704-1241", 3.5, "AMBUL ECG PLACEMENT", 13, "TREATMENT", "2013-09-04", "2013-09-04", 11, 11, ""], [1043, "CDISCPILOT01", "SV", "01-704-1241", 4.0, "WEEK 2", 14, "TREATMENT", "2013-09-05", "2013-09-05", 12, 12, ""], [1044, "CDISCPILOT01", "SV", "01-704-1241", 5.0, "WEEK 4", 28, "TREATMENT", "2013-09-19", "2013-09-19", 26, 26, ""], [1045, "CDISCPILOT01", "SV", "01-704-1241", 6.0, "AMBUL ECG REMOVAL", 30, "TREATMENT", "2013-09-21", "2013-09-21", 28, 28, ""], [1046, "CDISCPILOT01", "SV", "01-704-1241", 7.0, "WEEK 6", 42, "TREATMENT", "2013-10-09", "2013-10-09", 46, 46, ""], [1047, "CDISCPILOT01", "SV", "01-704-1241", 8.0, "WEEK 8", 56, "TREATMENT", "2013-10-31", "2013-10-31", 68, 68, ""], [1048, "CDISCPILOT01", "SV", "01-704-1241", 101.0, "AE FOLLOW-UP", null, "FOLLOW-UP", "2014-01-22", "2014-01-22", 151, 151, ""], [1049, "CDISCPILOT01", "SV", "01-704-1260", 1.0, "SCREENING 1", -7, "SCREENING", "2012-08-23", "2012-08-23", -7, -7, ""], [1050, "CDISCPILOT01", "SV", "01-704-1260", 2.0, "SCREENING 2", -1, "SCREENING", "2012-08-26", "2012-08-26", -4, -4, ""], [1051, "CDISCPILOT01", "SV", "01-704-1260", 3.0, "BASELINE", 1, "TREATMENT", "2012-08-30", "2012-08-30", 1, 1, ""], [1052, "CDISCPILOT01", "SV", "01-704-1260", 3.5, "AMBUL ECG PLACEMENT", 13, "TREATMENT", "2012-09-12", "2012-09-12", 14, 14, ""], [1053, "CDISCPILOT01", "SV", "01-704-1260", 4.0, "WEEK 2", 14, "TREATMENT", "2012-09-13", "2012-09-13", 15, 15, ""], [1054, "CDISCPILOT01", "SV", "01-704-1260", 5.0, "WEEK 4", 28, "TREATMENT", "2012-09-26", "2012-09-26", 28, 28, ""], [1055, "CDISCPILOT01", "SV", "01-704-1260", 6.0, "AMBUL ECG REMOVAL", 30, "TREATMENT", "2012-09-28", "2012-09-28", 30, 30, ""], [1056, "CDISCPILOT01", "SV", "01-704-1260", 7.0, "WEEK 6", 42, "TREATMENT", "2012-10-11", "2012-10-11", 43, 43, ""], [1057, "CDISCPILOT01", "SV", "01-704-1260", 8.0, "WEEK 8", 56, "TREATMENT", "2012-10-24", "2012-10-24", 56, 56, ""], [1058, "CDISCPILOT01", "SV", "01-704-1260", 9.0, "WEEK 12", 84, "TREATMENT", "2013-01-18", "2013-01-18", 142, 142, ""], [1059, "CDISCPILOT01", "SV", "01-704-1266", 1.0, "SCREENING 1", -7, "SCREENING", "2013-10-05", "2013-10-05", -8, -8, ""], [1060, "CDISCPILOT01", "SV", "01-704-1266", 2.0, "SCREENING 2", -1, "SCREENING", "2013-10-11", "2013-10-11", -2, -2, ""], [1061, "CDISCPILOT01", "SV", "01-704-1266", 3.0, "BASELINE", 1, "TREATMENT", "2013-10-13", "2013-10-13", 1, 1, ""], [1062, "CDISCPILOT01", "SV", "01-704-1266", 3.5, "AMBUL ECG PLACEMENT", 13, "TREATMENT", "2013-10-26", "2013-10-26", 14, 14, ""], [1063, "CDISCPILOT01", "SV", "01-704-1266", 4.0, "WEEK 2", 14, "TREATMENT", "2013-10-27", "2013-10-27", 15, 15, ""], [1064, "CDISCPILOT01", "SV", "01-704-1266", 5.0, "WEEK 4", 28, "TREATMENT", "2013-11-08", "2013-11-08", 27, 27, ""], [1065, "CDISCPILOT01", "SV", "01-704-1266", 6.0, "AMBUL ECG REMOVAL", 30, "TREATMENT", "2013-11-10", "2013-11-10", 29, 29, ""], [1066, "CDISCPILOT01", "SV", "01-704-1266", 7.0, "WEEK 6", 42, "TREATMENT", "2013-11-22", "2013-11-22", 41, 41, ""], [1067, "CDISCPILOT01", "SV", "01-704-1266", 8.0, "WEEK 8", 56, "TREATMENT", "2013-12-06", "2013-12-06", 55, 55, ""], [1068, "CDISCPILOT01", "SV", "01-704-1266", 101.0, "AE FOLLOW-UP", null, "FOLLOW-UP", "2014-01-03", "2014-01-03", 83, 83, ""], [1069, "CDISCPILOT01", "SV", "01-704-1323", 1.0, "SCREENING 1", -7, "SCREENING", "2013-06-13", "2013-06-13", -25, -25, ""], [1070, "CDISCPILOT01", "SV", "01-704-1323", 2.0, "SCREENING 2", -1, "SCREENING", "2013-07-07", "2013-07-07", -1, -1, ""], [1071, "CDISCPILOT01", "SV", "01-704-1323", 3.0, "BASELINE", 1, "TREATMENT", "2013-07-08", "2013-07-08", 1, 1, ""], [1072, "CDISCPILOT01", "SV", "01-704-1323", 3.5, "AMBUL ECG PLACEMENT", 13, "TREATMENT", "2013-07-21", "2013-07-21", 14, 14, ""], [1073, "CDISCPILOT01", "SV", "01-704-1323", 4.0, "WEEK 2", 14, "TREATMENT", "2013-07-23", "2013-07-23", 16, 16, ""], [1074, "CDISCPILOT01", "SV", "01-704-1323", 5.0, "WEEK 4", 28, "TREATMENT", "2013-08-04", "2013-08-04", 28, 28, ""], [1075, "CDISCPILOT01", "SV", "01-704-1323", 6.0, "AMBUL ECG REMOVAL", 30, "TREATMENT", "2013-08-06", "2013-08-06", 30, 30, ""], [1076, "CDISCPILOT01", "SV", "01-704-1323", 7.0, "WEEK 6", 42, "TREATMENT", "2013-08-08", "2013-08-08", 32, 32, ""], [1077, "CDISCPILOT01", "SV", "01-704-1323", 101.0, "AE FOLLOW-UP", null, "FOLLOW-UP", "2013-10-01", "2013-10-01", 86, 86, ""], [1078, "CDISCPILOT01", "SV", "01-704-1325", 1.0, "SCREENING 1", -7, "SCREENING", "2014-04-16", "2014-04-16", -7, -7, ""], [1079, "CDISCPILOT01", "SV", "01-704-1325", 2.0, "SCREENING 2", -1, "SCREENING", "2014-04-21", "2014-04-21", -2, -2, ""], [1080, "CDISCPILOT01", "SV", "01-704-1325", 3.0, "BASELINE", 1, "TREATMENT", "2014-04-23", "2014-04-23", 1, 1, ""], [1081, "CDISCPILOT01", "SV", "01-704-1325", 3.5, "AMBUL ECG PLACEMENT", 13, "TREATMENT", "2014-05-06", "2014-05-06", 14, 14, ""], [1082, "CDISCPILOT01", "SV", "01-704-1325", 4.0, "WEEK 2", 14, "TREATMENT", "2014-05-07", "2014-05-07", 15, 15, ""], [1083, "CDISCPILOT01", "SV", "01-704-1325", 5.0, "WEEK 4", 28, "TREATMENT", "2014-05-19", "2014-05-19", 27, 27, ""], [1084, "CDISCPILOT01", "SV", "01-704-1325", 6.0, "AMBUL ECG REMOVAL", 30, "TREATMENT", "2014-05-21", "2014-05-21", 29, 29, ""], [1085, "CDISCPILOT01", "SV", "01-704-1325", 7.0, "WEEK 6", 42, "TREATMENT", "2014-06-04", "2014-06-04", 43, 43, ""], [1086, "CDISCPILOT01", "SV", "01-704-1325", 8.0, "WEEK 8", 56, "TREATMENT", "2014-06-18", "2014-06-18", 57, 57, ""], [1087, "CDISCPILOT01", "SV", "01-704-1325", 8.1, "WEEK 10 (T)", 70, "TREATMENT", "2014-07-02", "2014-07-02", 71, 71, ""], [1088, "CDISCPILOT01", "SV", "01-704-1325", 9.0, "WEEK 12", 84, "TREATMENT", "2014-07-16", "2014-07-16", 85, 85, ""], [1089, "CDISCPILOT01", "SV", "01-704-1325", 10.0, "WEEK 16", 112, "TREATMENT", "2014-08-06", "2014-08-06", 106, 106, ""], [1090, "CDISCPILOT01", "SV", "01-704-1332", 1.0, "SCREENING 1", -7, "SCREENING", "2013-11-24", "2013-11-24", -15, -15, ""], [1091, "CDISCPILOT01", "SV", "01-704-1332", 2.0, "SCREENING 2", -1, "SCREENING", "2013-12-07", "2013-12-07", -2, -2, ""], [1092, "CDISCPILOT01", "SV", "01-704-1332", 3.0, "BASELINE", 1, "TREATMENT", "2013-12-09", "2013-12-09", 1, 1, ""], [1093, "CDISCPILOT01", "SV", "01-704-1332", 3.5, "AMBUL ECG PLACEMENT", 13, "TREATMENT", "2013-12-22", "2013-12-22", 14, 14, ""], [1094, "CDISCPILOT01", "SV", "01-704-1332", 4.0, "WEEK 2", 14, "TREATMENT", "2013-12-23", "2013-12-23", 15, 15, ""], [1095, "CDISCPILOT01", "SV", "01-704-1332", 5.0, "WEEK 4", 28, "TREATMENT", "2014-01-04", "2014-01-04", 27, 27, ""], [1096, "CDISCPILOT01", "SV", "01-704-1332", 6.0, "AMBUL ECG REMOVAL", 30, "TREATMENT", "2014-01-06", "2014-01-06", 29, 29, ""], [1097, "CDISCPILOT01", "SV", "01-704-1332", 7.0, "WEEK 6", 42, "TREATMENT", "2014-01-20", "2014-01-20", 43, 43, ""], [1098, "CDISCPILOT01", "SV", "01-704-1332", 8.0, "WEEK 8", 56, "TREATMENT", "2014-02-03", "2014-02-03", 57, 57, ""], [1099, "CDISCPILOT01", "SV", "01-704-1332", 9.0, "WEEK 12", 84, "TREATMENT", "2014-02-16", "2014-02-16", 70, 70, ""], [1100, "CDISCPILOT01", "SV", "01-704-1332", 101.0, "AE FOLLOW-UP", null, "FOLLOW-UP", "2014-02-24", "2014-02-24", 78, 78, ""], [1101, "CDISCPILOT01", "SV", "01-704-1351", 1.0, "SCREENING 1", -7, "SCREENING", "2013-09-26", "2013-09-26", -16, -16, ""], [1102, "CDISCPILOT01", "SV", "01-704-1351", 1.1, "UNSCHEDULED 1.1", null, "SCREENING", "2013-10-03", "2013-10-03", -9, -9, "Unplanned visit to complete unscheduled assessments"], [1103, "CDISCPILOT01", "SV", "01-704-1351", 2.0, "SCREENING 2", -1, "SCREENING", "2013-10-10", "2013-10-10", -2, -2, ""], [1104, "CDISCPILOT01", "SV", "01-704-1351", 3.0, "BASELINE", 1, "TREATMENT", "2013-10-12", "2013-10-12", 1, 1, ""], [1105, "CDISCPILOT01", "SV", "01-704-1351", 4.0, "WEEK 2", 14, "TREATMENT", "2013-10-26", "2013-10-26", 15, 15, ""], [1106, "CDISCPILOT01", "SV", "01-704-1351", 5.0, "WEEK 4", 28, "TREATMENT", "2013-11-07", "2013-11-07", 27, 27, ""], [1107, "CDISCPILOT01", "SV", "01-704-1351", 5.1, "UNSCHEDULED 5.1", null, "TREATMENT", "2013-11-09", "2013-11-09", 29, 29, "Unplanned visit to complete unscheduled assessments"], [1108, "CDISCPILOT01", "SV", "01-704-1351", 6.0, "AMBUL ECG REMOVAL", 30, "TREATMENT", "2013-11-09", "2013-11-09", 29, 29, ""], [1109, "CDISCPILOT01", "SV", "01-704-1351", 7.0, "WEEK 6", 42, "TREATMENT", "2013-11-16", "2013-11-16", 36, 36, ""], [1110, "CDISCPILOT01", "SV", "01-704-1351", 8.0, "WEEK 8", 56, "TREATMENT", "2013-12-02", "2013-12-02", 52, 52, ""], [1111, "CDISCPILOT01", "SV", "01-704-1351", 8.1, "WEEK 10 (T)", 70, "TREATMENT", "2013-12-14", "2013-12-14", 64, 64, ""], [1112, "CDISCPILOT01", "SV", "01-704-1351", 9.0, "WEEK 12", 84, "TREATMENT", "2013-12-28", "2013-12-28", 78, 78, ""], [1113, "CDISCPILOT01", "SV", "01-704-1351", 9.1, "WEEK 14 (T)", 98, "TREATMENT", "2014-01-11", "2014-01-11", 92, 92, ""], [1114, "CDISCPILOT01", "SV", "01-704-1351", 10.0, "WEEK 16", 112, "TREATMENT", "2014-01-26", "2014-01-26", 107, 107, ""], [1115, "CDISCPILOT01", "SV", "01-704-1351", 10.1, "WEEK 18 (T)", 126, "TREATMENT", "2014-02-08", "2014-02-08", 120, 120, ""], [1116, "CDISCPILOT01", "SV", "01-704-1351", 11.0, "WEEK 20", 140, "TREATMENT", "2014-03-01", "2014-03-01", 141, 141, ""], [1117, "CDISCPILOT01", "SV", "01-704-1351", 11.1, "WEEK 22 (T)", 154, "TREATMENT", "2014-03-15", "2014-03-15", 155, 155, ""], [1118, "CDISCPILOT01", "SV", "01-704-1351", 12.0, "WEEK 24", 168, "TREATMENT", "2014-04-04", "2014-04-04", 175, 175, ""], [1119, "CDISCPILOT01", "SV", "01-704-1351", 13.0, "WEEK 26", 182, "TREATMENT", "2014-04-18", "2014-04-18", 189, 189, ""], [1120, "CDISCPILOT01", "SV", "01-704-1388", 1.0, "SCREENING 1", -7, "SCREENING", "2012-11-28", "2012-11-28", -9, -9, ""], [1121, "CDISCPILOT01", "SV", "01-704-1388", 2.0, "SCREENING 2", -1, "SCREENING", "2012-12-05", "2012-12-05", -2, -2, ""], [1122, "CDISCPILOT01", "SV", "01-704-1388", 3.0, "BASELINE", 1, "TREATMENT", "2012-12-07", "2012-12-07", 1, 1, ""], [1123, "CDISCPILOT01", "SV", "01-704-1388", 3.5, "AMBUL ECG PLACEMENT", 13, "TREATMENT", "2012-12-20", "2012-12-20", 14, 14, ""], [1124, "CDISCPILOT01", "SV", "01-704-1388", 4.0, "WEEK 2", 14, "TREATMENT", "2012-12-21", "2012-12-21", 15, 15, ""], [1125, "CDISCPILOT01", "SV", "01-704-1388", 5.0, "WEEK 4", 28, "TREATMENT", "2013-01-02", "2013-01-02", 27, 27, ""], [1126, "CDISCPILOT01", "SV", "01-704-1388", 6.0, "AMBUL ECG REMOVAL", 30, "TREATMENT", "2013-01-04", "2013-01-04", 29, 29, ""], [1127, "CDISCPILOT01", "SV", "01-704-1388", 7.0, "WEEK 6", 42, "TREATMENT", "2013-01-18", "2013-01-18", 43, 43, ""], [1128, "CDISCPILOT01", "SV", "01-704-1388", 8.0, "WEEK 8", 56, "TREATMENT", "2013-01-30", "2013-01-30", 55, 55, ""], [1129, "CDISCPILOT01", "SV", "01-704-1388", 8.1, "WEEK 10 (T)", 70, "TREATMENT", "2013-02-16", "2013-02-16", 72, 72, ""], [1130, "CDISCPILOT01", "SV", "01-704-1388", 9.0, "WEEK 12", 84, "TREATMENT", "2013-02-27", "2013-02-27", 83, 83, ""], [1131, "CDISCPILOT01", "SV", "01-704-1388", 9.1, "WEEK 14 (T)", 98, "TREATMENT", "2013-03-15", "2013-03-15", 99, 99, ""], [1132, "CDISCPILOT01", "SV", "01-704-1388", 10.0, "WEEK 16", 112, "TREATMENT", "2013-03-27", "2013-03-27", 111, 111, ""], [1133, "CDISCPILOT01", "SV", "01-704-1388", 10.1, "WEEK 18 (T)", 126, "TREATMENT", "2013-04-12", "2013-04-12", 127, 127, ""], [1134, "CDISCPILOT01", "SV", "01-704-1388", 11.0, "WEEK 20", 140, "TREATMENT", "2013-04-28", "2013-04-28", 143, 143, ""], [1135, "CDISCPILOT01", "SV", "01-704-1388", 11.1, "WEEK 22 (T)", 154, "TREATMENT", "2013-05-12", "2013-05-12", 157, 157, ""], [1136, "CDISCPILOT01", "SV", "01-704-1388", 12.0, "WEEK 24", 168, "TREATMENT", "2013-05-23", "2013-05-23", 168, 168, ""], [1137, "CDISCPILOT01", "SV", "01-704-1388", 13.0, "WEEK 26", 182, "TREATMENT", "2013-06-19", "2013-06-19", 195, 195, ""], [1138, "CDISCPILOT01", "SV", "01-704-1435", 1.0, "SCREENING 1", -7, "SCREENING", "2012-11-01", "2012-11-01", -16, -16, ""], [1139, "CDISCPILOT01", "SV", "01-704-1435", 2.0, "SCREENING 2", -1, "SCREENING", "2012-11-15", "2012-11-15", -2, -2, ""], [1140, "CDISCPILOT01", "SV", "01-704-1435", 3.0, "BASELINE", 1, "TREATMENT", "2012-11-17", "2012-11-17", 1, 1, ""], [1141, "CDISCPILOT01", "SV", "01-704-1435", 3.5, "AMBUL ECG PLACEMENT", 13, "TREATMENT", "2012-11-30", "2012-11-30", 14, 14, ""], [1142, "CDISCPILOT01", "SV", "01-704-1435", 4.0, "WEEK 2", 14, "TREATMENT", "2012-12-01", "2012-12-01", 15, 15, ""], [1143, "CDISCPILOT01", "SV", "01-704-1435", 5.0, "WEEK 4", 28, "TREATMENT", "2012-12-15", "2012-12-15", 29, 29, ""], [1144, "CDISCPILOT01", "SV", "01-704-1435", 6.0, "AMBUL ECG REMOVAL", 30, "TREATMENT", "2012-12-17", "2012-12-17", 31, 31, ""], [1145, "CDISCPILOT01", "SV", "01-704-1435", 7.0, "WEEK 6", 42, "TREATMENT", "2012-12-30", "2012-12-30", 44, 44, ""], [1146, "CDISCPILOT01", "SV", "01-704-1435", 8.0, "WEEK 8", 56, "TREATMENT", "2013-01-12", "2013-01-12", 57, 57, ""], [1147, "CDISCPILOT01", "SV", "01-704-1445", 1.0, "SCREENING 1", -7, "SCREENING", "2014-05-01", "2014-05-01", -10, -10, ""], [1148, "CDISCPILOT01", "SV", "01-704-1445", 1.1, "UNSCHEDULED 1.1", null, "SCREENING", "2014-05-03", "2014-05-03", -8, -8, "Unplanned visit to complete unscheduled assessments"], [1149, "CDISCPILOT01", "SV", "01-704-1445", 2.0, "SCREENING 2", -1, "SCREENING", "2014-05-09", "2014-05-09", -2, -2, ""], [1150, "CDISCPILOT01", "SV", "01-704-1445", 3.0, "BASELINE", 1, "TREATMENT", "2014-05-11", "2014-05-11", 1, 1, ""], [1151, "CDISCPILOT01", "SV", "01-704-1445", 3.5, "AMBUL ECG PLACEMENT", 13, "TREATMENT", "2014-05-24", "2014-05-24", 14, 14, ""], [1152, "CDISCPILOT01", "SV", "01-704-1445", 4.0, "WEEK 2", 14, "TREATMENT", "2014-05-25", "2014-05-25", 15, 15, ""], [1153, "CDISCPILOT01", "SV", "01-704-1445", 5.0, "WEEK 4", 28, "TREATMENT", "2014-06-11", "2014-06-11", 32, 32, ""], [1154, "CDISCPILOT01", "SV", "01-704-1445", 6.0, "AMBUL ECG REMOVAL", 30, "TREATMENT", "2014-06-13", "2014-06-13", 34, 34, ""], [1155, "CDISCPILOT01", "SV", "01-704-1445", 7.0, "WEEK 6", 42, "TREATMENT", "2014-06-25", "2014-06-25", 46, 46, ""], [1156, "CDISCPILOT01", "SV", "01-704-1445", 8.0, "WEEK 8", 56, "TREATMENT", "2014-07-09", "2014-07-09", 60, 60, ""], [1157, "CDISCPILOT01", "SV", "01-704-1445", 8.1, "WEEK 10 (T)", 70, "TREATMENT", "2014-07-27", "2014-07-27", 78, 78, ""], [1158, "CDISCPILOT01", "SV", "01-704-1445", 9.0, "WEEK 12", 84, "TREATMENT", "2014-08-06", "2014-08-06", 88, 88, ""], [1159, "CDISCPILOT01", "SV", "01-704-1445", 9.1, "WEEK 14 (T)", 98, "TREATMENT", "2014-08-24", "2014-08-24", 106, 106, ""], [1160, "CDISCPILOT01", "SV", "01-704-1445", 10.0, "WEEK 16", 112, "TREATMENT", "2014-09-03", "2014-09-03", 116, 116, ""], [1161, "CDISCPILOT01", "SV", "01-704-1445", 10.1, "WEEK 18 (T)", 126, "TREATMENT", "2014-09-25", "2014-09-25", 138, 138, ""], [1162, "CDISCPILOT01", "SV", "01-704-1445", 11.0, "WEEK 20", 140, "TREATMENT", "2014-10-01", "2014-10-01", 144, 144, ""], [1163, "CDISCPILOT01", "SV", "01-704-1445", 11.1, "WEEK 22 (T)", 154, "TREATMENT", "2014-10-15", "2014-10-15", 158, 158, ""], [1164, "CDISCPILOT01", "SV", "01-704-1445", 12.0, "WEEK 24", 168, "TREATMENT", "2014-11-01", "2014-11-01", 175, 175, ""], [1165, "CDISCPILOT01", "SV", "01-705-1011", 1.0, "SCREENING 1", -7, "SCREENING", "2013-09-01", "2013-09-01", null, null, ""], [1166, "CDISCPILOT01", "SV", "01-705-1018", 1.0, "SCREENING 1", -7, "SCREENING", "2013-06-30", "2013-06-30", -5, -5, ""], [1167, "CDISCPILOT01", "SV", "01-705-1018", 2.0, "SCREENING 2", -1, "SCREENING", "2013-07-03", "2013-07-03", -2, -2, ""], [1168, "CDISCPILOT01", "SV", "01-705-1018", 3.0, "BASELINE", 1, "TREATMENT", "2013-07-05", "2013-07-05", 1, 1, ""], [1169, "CDISCPILOT01", "SV", "01-705-1018", 4.0, "WEEK 2", 14, "TREATMENT", "2013-07-12", "2013-07-12", 8, 8, ""], [1170, "CDISCPILOT01", "SV", "01-705-1031", 1.0, "SCREENING 1", -7, "SCREENING", "2013-11-17", "2013-11-17", -10, -10, ""], [1171, "CDISCPILOT01", "SV", "01-705-1031", 2.0, "SCREENING 2", -1, "SCREENING", "2013-11-19", "2013-11-19", -8, -8, ""], [1172, "CDISCPILOT01", "SV", "01-705-1031", 3.0, "BASELINE", 1, "TREATMENT", "2013-11-27", "2013-11-27", 1, 1, ""], [1173, "CDISCPILOT01", "SV", "01-705-1031", 3.5, "AMBUL ECG PLACEMENT", 13, "TREATMENT", "2013-12-17", "2013-12-17", 21, 21, ""], [1174, "CDISCPILOT01", "SV", "01-705-1031", 4.0, "WEEK 2", 14, "TREATMENT", "2013-12-18", "2013-12-18", 22, 22, ""], [1175, "CDISCPILOT01", "SV", "01-705-1031", 5.0, "WEEK 4", 28, "TREATMENT", "2013-12-25", "2013-12-25", 29, 29, ""], [1176, "CDISCPILOT01", "SV", "01-705-1031", 6.0, "AMBUL ECG REMOVAL", 30, "TREATMENT", "2013-12-27", "2013-12-27", 31, 31, ""], [1177, "CDISCPILOT01", "SV", "01-705-1031", 7.0, "WEEK 6", 42, "TREATMENT", "2014-01-12", "2014-01-12", 47, 47, ""], [1178, "CDISCPILOT01", "SV", "01-705-1031", 8.0, "WEEK 8", 56, "TREATMENT", "2014-01-23", "2014-01-23", 58, 58, ""], [1179, "CDISCPILOT01", "SV", "01-705-1031", 8.1, "WEEK 10 (T)", 70, "TREATMENT", "2014-02-06", "2014-02-06", 72, 72, ""], [1180, "CDISCPILOT01", "SV", "01-705-1031", 9.0, "WEEK 12", 84, "TREATMENT", "2014-02-20", "2014-02-20", 86, 86, ""], [1181, "CDISCPILOT01", "SV", "01-705-1031", 9.1, "WEEK 14 (T)", 98, "TREATMENT", "2014-03-06", "2014-03-06", 100, 100, ""], [1182, "CDISCPILOT01", "SV", "01-705-1031", 10.0, "WEEK 16", 112, "TREATMENT", "2014-03-20", "2014-03-20", 114, 114, ""], [1183, "CDISCPILOT01", "SV", "01-705-1031", 10.1, "WEEK 18 (T)", 126, "TREATMENT", "2014-04-03", "2014-04-03", 128, 128, ""], [1184, "CDISCPILOT01", "SV", "01-705-1031", 11.0, "WEEK 20", 140, "TREATMENT", "2014-04-13", "2014-04-13", 138, 138, ""], [1185, "CDISCPILOT01", "SV", "01-705-1031", 11.1, "WEEK 22 (T)", 154, "TREATMENT", "2014-04-26", "2014-04-26", 151, 151, ""], [1186, "CDISCPILOT01", "SV", "01-705-1031", 12.0, "WEEK 24", 168, "TREATMENT", "2014-05-11", "2014-05-11", 166, 166, ""], [1187, "CDISCPILOT01", "SV", "01-705-1058", 1.0, "SCREENING 1", -7, "SCREENING", "2013-12-02", "2013-12-02", null, null, ""], [1188, "CDISCPILOT01", "SV", "01-705-1059", 1.0, "SCREENING 1", -7, "SCREENING", "2013-08-02", "2013-08-02", -3, -3, ""], [1189, "CDISCPILOT01", "SV", "01-705-1059", 2.0, "SCREENING 2", -1, "SCREENING", "2013-08-03", "2013-08-03", -2, -2, ""], [1190, "CDISCPILOT01", "SV", "01-705-1059", 3.0, "BASELINE", 1, "TREATMENT", "2013-08-05", "2013-08-05", 1, 1, ""], [1191, "CDISCPILOT01", "SV", "01-705-1059", 3.5, "AMBUL ECG PLACEMENT", 13, "TREATMENT", "2013-08-18", "2013-08-18", 14, 14, ""], [1192, "CDISCPILOT01", "SV", "01-705-1059", 4.0, "WEEK 2", 14, "TREATMENT", "2013-08-19", "2013-08-19", 15, 15, ""], [1193, "CDISCPILOT01", "SV", "01-705-1059", 5.0, "WEEK 4", 28, "TREATMENT", "2013-09-05", "2013-09-05", 32, 32, ""], [1194, "CDISCPILOT01", "SV", "01-705-1059", 6.0, "AMBUL ECG REMOVAL", 30, "TREATMENT", "2013-09-07", "2013-09-07", 34, 34, ""], [1195, "CDISCPILOT01", "SV", "01-705-1059", 7.0, "WEEK 6", 42, "TREATMENT", "2013-09-19", "2013-09-19", 46, 46, ""], [1196, "CDISCPILOT01", "SV", "01-705-1059", 8.0, "WEEK 8", 56, "TREATMENT", "2013-10-03", "2013-10-03", 60, 60, ""], [1197, "CDISCPILOT01", "SV", "01-705-1059", 8.1, "WEEK 10 (T)", 70, "TREATMENT", "2013-10-17", "2013-10-17", 74, 74, ""], [1198, "CDISCPILOT01", "SV", "01-705-1059", 9.0, "WEEK 12", 84, "TREATMENT", "2013-11-07", "2013-11-07", 95, 95, ""], [1199, "CDISCPILOT01", "SV", "01-705-1059", 9.1, "WEEK 14 (T)", 98, "TREATMENT", "2013-11-21", "2013-11-21", 109, 109, ""], [1200, "CDISCPILOT01", "SV", "01-705-1059", 10.0, "WEEK 16", 112, "TREATMENT", "2013-12-05", "2013-12-05", 123, 123, ""], [1201, "CDISCPILOT01", "SV", "01-705-1059", 101.0, "AE FOLLOW-UP", null, "FOLLOW-UP", "2014-01-02", "2014-01-02", 151, 151, ""], [1202, "CDISCPILOT01", "SV", "01-705-1059", 201.0, "RETRIEVAL", 168, "FOLLOW-UP", "2014-02-06", "2014-02-06", 186, 186, ""], [1203, "CDISCPILOT01", "SV", "01-705-1112", 1.0, "SCREENING 1", -7, "SCREENING", "2014-02-23", "2014-02-23", null, null, ""], [1204, "CDISCPILOT01", "SV", "01-705-1186", 1.0, "SCREENING 1", -7, "SCREENING", "2014-01-03", "2014-01-03", -5, -5, ""], [1205, "CDISCPILOT01", "SV", "01-705-1186", 2.0, "SCREENING 2", -1, "SCREENING", "2014-01-06", "2014-01-06", -2, -2, ""], [1206, "CDISCPILOT01", "SV", "01-705-1186", 3.0, "BASELINE", 1, "TREATMENT", "2014-01-08", "2014-01-08", 1, 1, ""], [1207, "CDISCPILOT01", "SV", "01-705-1186", 3.5, "AMBUL ECG PLACEMENT", 13, "TREATMENT", "2014-01-22", "2014-01-22", 15, 15, ""], [1208, "CDISCPILOT01", "SV", "01-705-1186", 4.0, "WEEK 2", 14, "TREATMENT", "2014-01-23", "2014-01-23", 16, 16, ""], [1209, "CDISCPILOT01", "SV", "01-705-1186", 4.1, "UNSCHEDULED 4.1", null, "TREATMENT", "2014-01-26", "2014-01-26", 19, 19, "Unplanned visit to complete unscheduled assessments"], [1210, "CDISCPILOT01", "SV", "01-705-1186", 4.2, "UNSCHEDULED 4.2", null, "TREATMENT", "2014-02-01", "2014-02-01", 25, 25, "Unplanned visit to complete unscheduled assessments"], [1211, "CDISCPILOT01", "SV", "01-705-1186", 5.0, "WEEK 4", 28, "TREATMENT", "2014-02-07", "2014-02-07", 31, 31, ""], [1212, "CDISCPILOT01", "SV", "01-705-1186", 5.1, "UNSCHEDULED 5.1", null, "TREATMENT", "2014-02-07", "2014-02-07", 31, 31, "Unplanned visit to complete unscheduled assessments"], [1213, "CDISCPILOT01", "SV", "01-705-1199", 1.0, "SCREENING 1", -7, "SCREENING", "2013-09-11", "2013-09-11", -5, -5, ""], [1214, "CDISCPILOT01", "SV", "01-705-1199", 2.0, "SCREENING 2", -1, "SCREENING", "2013-09-14", "2013-09-14", -2, -2, ""], [1215, "CDISCPILOT01", "SV", "01-705-1199", 3.0, "BASELINE", 1, "TREATMENT", "2013-09-16", "2013-09-16", 1, 1, ""], [1216, "CDISCPILOT01", "SV", "01-705-1199", 4.0, "WEEK 2", 14, "TREATMENT", "2013-09-29", "2013-09-29", 14, 14, ""], [1217, "CDISCPILOT01", "SV", "01-705-1199", 101.0, "AE FOLLOW-UP", null, "TREATMENT", "2013-09-29", "2013-09-29", 14, 14, ""], [1218, "CDISCPILOT01", "SV", "01-705-1243", 1.0, "SCREENING 1", -7, "SCREENING", "2013-02-26", "2013-02-26", null, null, ""], [1219, "CDISCPILOT01", "SV", "01-705-1280", 1.0, "SCREENING 1", -7, "SCREENING", "2014-01-11", "2014-01-11", -6, -6, ""], [1220, "CDISCPILOT01", "SV", "01-705-1280", 2.0, "SCREENING 2", -1, "SCREENING", "2014-01-15", "2014-01-15", -2, -2, ""], [1221, "CDISCPILOT01", "SV", "01-705-1280", 3.0, "BASELINE", 1, "TREATMENT", "2014-01-17", "2014-01-17", 1, 1, ""], [1222, "CDISCPILOT01", "SV", "01-705-1280", 3.5, "AMBUL ECG PLACEMENT", 13, "TREATMENT", "2014-01-30", "2014-01-30", 14, 14, ""], [1223, "CDISCPILOT01", "SV", "01-705-1280", 4.0, "WEEK 2", 14, "TREATMENT", "2014-01-31", "2014-01-31", 15, 15, ""], [1224, "CDISCPILOT01", "SV", "01-705-1280", 5.0, "WEEK 4", 28, "TREATMENT", "2014-02-13", "2014-02-13", 28, 28, ""], [1225, "CDISCPILOT01", "SV", "01-705-1280", 6.0, "AMBUL ECG REMOVAL", 30, "TREATMENT", "2014-02-15", "2014-02-15", 30, 30, ""], [1226, "CDISCPILOT01", "SV", "01-705-1280", 7.0, "WEEK 6", 42, "TREATMENT", "2014-03-07", "2014-03-07", 50, 50, ""], [1227, "CDISCPILOT01", "SV", "01-705-1280", 8.0, "WEEK 8", 56, "TREATMENT", "2014-03-21", "2014-03-21", 64, 64, ""], [1228, "CDISCPILOT01", "SV", "01-705-1280", 8.1, "WEEK 10 (T)", 70, "TREATMENT", "2014-04-04", "2014-04-04", 78, 78, ""], [1229, "CDISCPILOT01", "SV", "01-705-1280", 9.0, "WEEK 12", 84, "TREATMENT", "2014-04-18", "2014-04-18", 92, 92, ""], [1230, "CDISCPILOT01", "SV", "01-705-1280", 9.1, "WEEK 14 (T)", 98, "TREATMENT", "2014-05-02", "2014-05-02", 106, 106, ""], [1231, "CDISCPILOT01", "SV", "01-705-1280", 10.0, "WEEK 16", 112, "TREATMENT", "2014-05-16", "2014-05-16", 120, 120, ""], [1232, "CDISCPILOT01", "SV", "01-705-1280", 10.1, "WEEK 18 (T)", 126, "TREATMENT", "2014-05-30", "2014-05-30", 134, 134, ""], [1233, "CDISCPILOT01", "SV", "01-705-1280", 11.0, "WEEK 20", 140, "TREATMENT", "2014-06-13", "2014-06-13", 148, 148, ""], [1234, "CDISCPILOT01", "SV", "01-705-1280", 11.1, "WEEK 22 (T)", 154, "TREATMENT", "2014-06-27", "2014-06-27", 162, 162, ""], [1235, "CDISCPILOT01", "SV", "01-705-1280", 12.0, "WEEK 24", 168, "TREATMENT", "2014-07-11", "2014-07-11", 176, 176, ""], [1236, "CDISCPILOT01", "SV", "01-705-1280", 13.0, "WEEK 26", 182, "TREATMENT", "2014-07-25", "2014-07-25", 190, 190, ""], [1237, "CDISCPILOT01", "SV", "01-705-1281", 1.0, "SCREENING 1", -7, "SCREENING", "2013-11-26", "2013-11-26", -2, -2, ""], [1238, "CDISCPILOT01", "SV", "01-705-1281", 2.0, "SCREENING 2", -1, "SCREENING", "2013-11-26", "2013-11-26", -2, -2, ""], [1239, "CDISCPILOT01", "SV", "01-705-1281", 3.0, "BASELINE", 1, "TREATMENT", "2013-11-28", "2013-11-28", 1, 1, ""], [1240, "CDISCPILOT01", "SV", "01-705-1281", 3.5, "AMBUL ECG PLACEMENT", 13, "TREATMENT", "2013-12-14", "2013-12-14", 17, 17, ""], [1241, "CDISCPILOT01", "SV", "01-705-1281", 4.0, "WEEK 2", 14, "TREATMENT", "2013-12-15", "2013-12-15", 18, 18, ""], [1242, "CDISCPILOT01", "SV", "01-705-1281", 5.0, "WEEK 4", 28, "TREATMENT", "2013-12-28", "2013-12-28", 31, 31, ""], [1243, "CDISCPILOT01", "SV", "01-705-1281", 6.0, "AMBUL ECG REMOVAL", 30, "TREATMENT", "2013-12-30", "2013-12-30", 33, 33, ""], [1244, "CDISCPILOT01", "SV", "01-705-1281", 7.0, "WEEK 6", 42, "TREATMENT", "2014-01-07", "2014-01-07", 41, 41, ""], [1245, "CDISCPILOT01", "SV", "01-705-1281", 8.0, "WEEK 8", 56, "TREATMENT", "2014-01-21", "2014-01-21", 55, 55, ""], [1246, "CDISCPILOT01", "SV", "01-705-1281", 8.1, "WEEK 10 (T)", 70, "TREATMENT", "2014-02-04", "2014-02-04", 69, 69, ""], [1247, "CDISCPILOT01", "SV", "01-705-1281", 9.0, "WEEK 12", 84, "TREATMENT", "2014-02-18", "2014-02-18", 83, 83, ""], [1248, "CDISCPILOT01", "SV", "01-705-1281", 9.1, "WEEK 14 (T)", 98, "TREATMENT", "2014-03-04", "2014-03-04", 97, 97, ""], [1249, "CDISCPILOT01", "SV", "01-705-1281", 10.0, "WEEK 16", 112, "TREATMENT", "2014-03-17", "2014-03-17", 110, 110, ""], [1250, "CDISCPILOT01", "SV", "01-705-1281", 101.0, "AE FOLLOW-UP", null, "FOLLOW-UP", "2014-04-20", "2014-04-20", 144, 144, ""], [1251, "CDISCPILOT01", "SV", "01-705-1282", 1.0, "SCREENING 1", -7, "SCREENING", "2012-12-23", "2012-12-23", -3, -3, ""], [1252, "CDISCPILOT01", "SV", "01-705-1282", 2.0, "SCREENING 2", -1, "SCREENING", "2012-12-24", "2012-12-24", -2, -2, ""], [1253, "CDISCPILOT01", "SV", "01-705-1282", 3.0, "BASELINE", 1, "TREATMENT", "2012-12-26", "2012-12-26", 1, 1, ""], [1254, "CDISCPILOT01", "SV", "01-705-1282", 3.5, "AMBUL ECG PLACEMENT", 13, "TREATMENT", "2013-01-08", "2013-01-08", 14, 14, ""], [1255, "CDISCPILOT01", "SV", "01-705-1282", 4.0, "WEEK 2", 14, "TREATMENT", "2013-01-09", "2013-01-09", 15, 15, ""], [1256, "CDISCPILOT01", "SV", "01-705-1282", 5.0, "WEEK 4", 28, "TREATMENT", "2013-01-21", "2013-01-21", 27, 27, ""], [1257, "CDISCPILOT01", "SV", "01-705-1282", 6.0, "AMBUL ECG REMOVAL", 30, "TREATMENT", "2013-01-23", "2013-01-23", 29, 29, ""], [1258, "CDISCPILOT01", "SV", "01-705-1282", 7.0, "WEEK 6", 42, "TREATMENT", "2013-02-07", "2013-02-07", 44, 44, ""], [1259, "CDISCPILOT01", "SV", "01-705-1282", 8.0, "WEEK 8", 56, "TREATMENT", "2013-02-20", "2013-02-20", 57, 57, ""], [1260, "CDISCPILOT01", "SV", "01-705-1282", 8.1, "WEEK 10 (T)", 70, "TREATMENT", "2013-03-06", "2013-03-06", 71, 71, ""], [1261, "CDISCPILOT01", "SV", "01-705-1282", 9.0, "WEEK 12", 84, "TREATMENT", "2013-03-20", "2013-03-20", 85, 85, ""], [1262, "CDISCPILOT01", "SV", "01-705-1282", 9.1, "WEEK 14 (T)", 98, "TREATMENT", "2013-04-03", "2013-04-03", 99, 99, ""], [1263, "CDISCPILOT01", "SV", "01-705-1282", 10.0, "WEEK 16", 112, "TREATMENT", "2013-04-16", "2013-04-16", 112, 112, ""], [1264, "CDISCPILOT01", "SV", "01-705-1282", 10.1, "WEEK 18 (T)", 126, "TREATMENT", "2013-04-30", "2013-04-30", 126, 126, ""], [1265, "CDISCPILOT01", "SV", "01-705-1282", 11.0, "WEEK 20", 140, "TREATMENT", "2013-05-14", "2013-05-14", 140, 140, ""], [1266, "CDISCPILOT01", "SV", "01-705-1282", 11.1, "WEEK 22 (T)", 154, "TREATMENT", "2013-05-28", "2013-05-28", 154, 154, ""], [1267, "CDISCPILOT01", "SV", "01-705-1282", 12.0, "WEEK 24", 168, "TREATMENT", "2013-06-11", "2013-06-11", 168, 168, ""], [1268, "CDISCPILOT01", "SV", "01-705-1282", 13.0, "WEEK 26", 182, "TREATMENT", "2013-06-24", "2013-06-24", 181, 181, ""], [1269, "CDISCPILOT01", "SV", "01-705-1292", 1.0, "SCREENING 1", -7, "SCREENING", "2013-10-11", "2013-10-11", -3, -3, ""], [1270, "CDISCPILOT01", "SV", "01-705-1292", 2.0, "SCREENING 2", -1, "SCREENING", "2013-10-12", "2013-10-12", -2, -2, ""], [1271, "CDISCPILOT01", "SV", "01-705-1292", 3.0, "BASELINE", 1, "TREATMENT", "2013-10-14", "2013-10-14", 1, 1, ""], [1272, "CDISCPILOT01", "SV", "01-705-1292", 3.5, "AMBUL ECG PLACEMENT", 13, "TREATMENT", "2013-10-28", "2013-10-28", 15, 15, ""], [1273, "CDISCPILOT01", "SV", "01-705-1292", 4.0, "WEEK 2", 14, "TREATMENT", "2013-10-29", "2013-10-29", 16, 16, ""], [1274, "CDISCPILOT01", "SV", "01-705-1292", 5.0, "WEEK 4", 28, "TREATMENT", "2013-11-22", "2013-11-22", 40, 40, ""], [1275, "CDISCPILOT01", "SV", "01-705-1292", 5.1, "UNSCHEDULED 5.1", null, "TREATMENT", "2013-11-25", "2013-11-25", 43, 43, "Unplanned visit to complete unscheduled assessments"], [1276, "CDISCPILOT01", "SV", "01-705-1292", 6.0, "AMBUL ECG REMOVAL", 30, "TREATMENT", "2013-11-25", "2013-11-25", 43, 43, ""], [1277, "CDISCPILOT01", "SV", "01-705-1292", 7.0, "WEEK 6", 42, "TREATMENT", "2013-12-11", "2013-12-11", 59, 59, ""], [1278, "CDISCPILOT01", "SV", "01-705-1292", 8.0, "WEEK 8", 56, "TREATMENT", "2014-01-02", "2014-01-02", 81, 81, ""], [1279, "CDISCPILOT01", "SV", "01-705-1292", 8.1, "WEEK 10 (T)", 70, "TREATMENT", "2014-01-16", "2014-01-16", 95, 95, ""], [1280, "CDISCPILOT01", "SV", "01-705-1292", 9.0, "WEEK 12", 84, "TREATMENT", "2014-02-07", "2014-02-07", 117, 117, ""], [1281, "CDISCPILOT01", "SV", "01-705-1292", 9.1, "WEEK 14 (T)", 98, "TREATMENT", "2014-02-21", "2014-02-21", 131, 131, ""], [1282, "CDISCPILOT01", "SV", "01-705-1292", 10.0, "WEEK 16", 112, "TREATMENT", "2014-03-03", "2014-03-03", 141, 141, ""], [1283, "CDISCPILOT01", "SV", "01-705-1292", 10.1, "WEEK 18 (T)", 126, "TREATMENT", "2014-03-17", "2014-03-17", 155, 155, ""], [1284, "CDISCPILOT01", "SV", "01-705-1292", 11.0, "WEEK 20", 140, "TREATMENT", "2014-03-31", "2014-03-31", 169, 169, ""], [1285, "CDISCPILOT01", "SV", "01-705-1292", 11.1, "WEEK 22 (T)", 154, "TREATMENT", "2014-04-14", "2014-04-14", 183, 183, ""], [1286, "CDISCPILOT01", "SV", "01-705-1292", 12.0, "WEEK 24", 168, "TREATMENT", "2014-04-28", "2014-04-28", 197, 197, ""], [1287, "CDISCPILOT01", "SV", "01-705-1292", 13.0, "WEEK 26", 182, "TREATMENT", "2014-05-14", "2014-05-14", 213, 213, ""], [1288, "CDISCPILOT01", "SV", "01-705-1303", 1.0, "SCREENING 1", -7, "SCREENING", "2013-12-10", "2013-12-10", -6, -6, ""], [1289, "CDISCPILOT01", "SV", "01-705-1303", 2.0, "SCREENING 2", -1, "SCREENING", "2013-12-14", "2013-12-14", -2, -2, ""], [1290, "CDISCPILOT01", "SV", "01-705-1303", 3.0, "BASELINE", 1, "TREATMENT", "2013-12-16", "2013-12-16", 1, 1, ""], [1291, "CDISCPILOT01", "SV", "01-705-1303", 3.5, "AMBUL ECG PLACEMENT", 13, "TREATMENT", "2013-12-29", "2013-12-29", 14, 14, ""], [1292, "CDISCPILOT01", "SV", "01-705-1303", 4.0, "WEEK 2", 14, "TREATMENT", "2013-12-30", "2013-12-30", 15, 15, ""], [1293, "CDISCPILOT01", "SV", "01-705-1303", 5.0, "WEEK 4", 28, "TREATMENT", "2014-01-12", "2014-01-12", 28, 28, ""], [1294, "CDISCPILOT01", "SV", "01-705-1303", 6.0, "AMBUL ECG REMOVAL", 30, "TREATMENT", "2014-01-14", "2014-01-14", 30, 30, ""], [1295, "CDISCPILOT01", "SV", "01-705-1303", 7.0, "WEEK 6", 42, "TREATMENT", "2014-01-26", "2014-01-26", 42, 42, ""], [1296, "CDISCPILOT01", "SV", "01-705-1303", 8.0, "WEEK 8", 56, "TREATMENT", "2014-02-10", "2014-02-10", 57, 57, ""], [1297, "CDISCPILOT01", "SV", "01-705-1303", 8.1, "WEEK 10 (T)", 70, "TREATMENT", "2014-02-24", "2014-02-24", 71, 71, ""], [1298, "CDISCPILOT01", "SV", "01-705-1303", 9.0, "WEEK 12", 84, "TREATMENT", "2014-03-03", "2014-03-03", 78, 78, ""], [1299, "CDISCPILOT01", "SV", "01-705-1303", 9.1, "WEEK 14 (T)", 98, "TREATMENT", "2014-03-17", "2014-03-17", 92, 92, ""], [1300, "CDISCPILOT01", "SV", "01-705-1303", 10.0, "WEEK 16", 112, "TREATMENT", "2014-04-07", "2014-04-07", 113, 113, ""], [1301, "CDISCPILOT01", "SV", "01-705-1303", 10.1, "WEEK 18 (T)", 126, "TREATMENT", "2014-04-21", "2014-04-21", 127, 127, ""], [1302, "CDISCPILOT01", "SV", "01-705-1303", 11.0, "WEEK 20", 140, "TREATMENT", "2014-06-02", "2014-06-02", 169, 169, ""], [1303, "CDISCPILOT01", "SV", "01-705-1310", 1.0, "SCREENING 1", -7, "SCREENING", "2013-10-26", "2013-10-26", -7, -7, ""], [1304, "CDISCPILOT01", "SV", "01-705-1310", 2.0, "SCREENING 2", -1, "SCREENING", "2013-10-31", "2013-10-31", -2, -2, ""], [1305, "CDISCPILOT01", "SV", "01-705-1310", 3.0, "BASELINE", 1, "TREATMENT", "2013-11-02", "2013-11-02", 1, 1, ""], [1306, "CDISCPILOT01", "SV", "01-705-1310", 3.5, "AMBUL ECG PLACEMENT", 13, "TREATMENT", "2013-11-21", "2013-11-21", 20, 20, ""], [1307, "CDISCPILOT01", "SV", "01-705-1310", 4.0, "WEEK 2", 14, "TREATMENT", "2013-11-22", "2013-11-22", 21, 21, ""], [1308, "CDISCPILOT01", "SV", "01-705-1310", 5.0, "WEEK 4", 28, "TREATMENT", "2013-11-30", "2013-11-30", 29, 29, ""], [1309, "CDISCPILOT01", "SV", "01-705-1310", 6.0, "AMBUL ECG REMOVAL", 30, "TREATMENT", "2013-12-02", "2013-12-02", 31, 31, ""], [1310, "CDISCPILOT01", "SV", "01-705-1310", 7.0, "WEEK 6", 42, "TREATMENT", "2013-12-16", "2013-12-16", 45, 45, ""], [1311, "CDISCPILOT01", "SV", "01-705-1310", 8.0, "WEEK 8", 56, "TREATMENT", "2013-12-26", "2013-12-26", 55, 55, ""], [1312, "CDISCPILOT01", "SV", "01-705-1310", 8.1, "WEEK 10 (T)", 70, "TREATMENT", "2014-01-10", "2014-01-10", 70, 70, ""], [1313, "CDISCPILOT01", "SV", "01-705-1310", 8.2, "UNSCHEDULED 8.2", null, "TREATMENT", "2014-01-10", "2014-01-10", 70, 70, "Unplanned visit to complete unscheduled assessments"], [1314, "CDISCPILOT01", "SV", "01-705-1310", 9.0, "WEEK 12", 84, "TREATMENT", "2014-01-23", "2014-01-23", 83, 83, ""], [1315, "CDISCPILOT01", "SV", "01-705-1310", 101.0, "AE FOLLOW-UP", null, "FOLLOW-UP", "2014-02-24", "2014-02-24", 115, 115, ""], [1316, "CDISCPILOT01", "SV", "01-705-1349", 1.0, "SCREENING 1", -7, "SCREENING", "2013-02-24", "2013-02-24", -14, -14, ""], [1317, "CDISCPILOT01", "SV", "01-705-1349", 1.1, "UNSCHEDULED 1.1", null, "SCREENING", "2013-03-03", "2013-03-03", -7, -7, "Unplanned visit to complete unscheduled assessments"], [1318, "CDISCPILOT01", "SV", "01-705-1349", 2.0, "SCREENING 2", -1, "SCREENING", "2013-03-08", "2013-03-08", -2, -2, ""], [1319, "CDISCPILOT01", "SV", "01-705-1349", 3.0, "BASELINE", 1, "TREATMENT", "2013-03-10", "2013-03-10", 1, 1, ""], [1320, "CDISCPILOT01", "SV", "01-705-1349", 3.5, "AMBUL ECG PLACEMENT", 13, "TREATMENT", "2013-03-23", "2013-03-23", 14, 14, ""], [1321, "CDISCPILOT01", "SV", "01-705-1349", 4.0, "WEEK 2", 14, "TREATMENT", "2013-03-24", "2013-03-24", 15, 15, ""], [1322, "CDISCPILOT01", "SV", "01-705-1349", 5.0, "WEEK 4", 28, "TREATMENT", "2013-04-04", "2013-04-04", 26, 26, ""], [1323, "CDISCPILOT01", "SV", "01-705-1349", 6.0, "AMBUL ECG REMOVAL", 30, "TREATMENT", "2013-04-17", "2013-04-17", 39, 39, ""], [1324, "CDISCPILOT01", "SV", "01-705-1349", 7.0, "WEEK 6", 42, "TREATMENT", "2013-04-17", "2013-04-17", 39, 39, ""], [1325, "CDISCPILOT01", "SV", "01-705-1349", 8.0, "WEEK 8", 56, "TREATMENT", "2013-05-01", "2013-05-01", 53, 53, ""], [1326, "CDISCPILOT01", "SV", "01-705-1349", 8.1, "WEEK 10 (T)", 70, "TREATMENT", "2013-05-15", "2013-05-15", 67, 67, ""], [1327, "CDISCPILOT01", "SV", "01-705-1349", 9.0, "WEEK 12", 84, "TREATMENT", "2013-05-28", "2013-05-28", 80, 80, ""], [1328, "CDISCPILOT01", "SV", "01-705-1349", 9.1, "WEEK 14 (T)", 98, "TREATMENT", "2013-06-11", "2013-06-11", 94, 94, ""], [1329, "CDISCPILOT01", "SV", "01-705-1349", 10.0, "WEEK 16", 112, "TREATMENT", "2013-06-25", "2013-06-25", 108, 108, ""], [1330, "CDISCPILOT01", "SV", "01-705-1349", 10.1, "WEEK 18 (T)", 126, "TREATMENT", "2013-07-09", "2013-07-09", 122, 122, ""], [1331, "CDISCPILOT01", "SV", "01-705-1349", 11.0, "WEEK 20", 140, "TREATMENT", "2013-07-23", "2013-07-23", 136, 136, ""], [1332, "CDISCPILOT01", "SV", "01-705-1349", 11.1, "WEEK 22 (T)", 154, "TREATMENT", "2013-08-06", "2013-08-06", 150, 150, ""], [1333, "CDISCPILOT01", "SV", "01-705-1349", 12.0, "WEEK 24", 168, "TREATMENT", "2013-08-25", "2013-08-25", 169, 169, ""], [1334, "CDISCPILOT01", "SV", "01-705-1349", 13.0, "WEEK 26", 182, "TREATMENT", "2013-09-08", "2013-09-08", 183, 183, ""], [1335, "CDISCPILOT01", "SV", "01-705-1377", 1.0, "SCREENING 1", -7, "SCREENING", "2013-12-29", "2013-12-29", -6, -6, ""], [1336, "CDISCPILOT01", "SV", "01-705-1377", 2.0, "SCREENING 2", -1, "SCREENING", "2014-01-02", "2014-01-02", -2, -2, ""], [1337, "CDISCPILOT01", "SV", "01-705-1377", 3.0, "BASELINE", 1, "TREATMENT", "2014-01-04", "2014-01-04", 1, 1, ""], [1338, "CDISCPILOT01", "SV", "01-705-1377", 3.5, "AMBUL ECG PLACEMENT", 13, "TREATMENT", "2014-01-24", "2014-01-24", 21, 21, ""], [1339, "CDISCPILOT01", "SV", "01-705-1377", 4.0, "WEEK 2", 14, "TREATMENT", "2014-01-25", "2014-01-25", 22, 22, ""], [1340, "CDISCPILOT01", "SV", "01-705-1377", 5.0, "WEEK 4", 28, "TREATMENT", "2014-02-07", "2014-02-07", 35, 35, ""], [1341, "CDISCPILOT01", "SV", "01-705-1377", 6.0, "AMBUL ECG REMOVAL", 30, "TREATMENT", "2014-02-09", "2014-02-09", 37, 37, ""], [1342, "CDISCPILOT01", "SV", "01-705-1377", 7.0, "WEEK 6", 42, "TREATMENT", "2014-03-07", "2014-03-07", 63, 63, ""], [1343, "CDISCPILOT01", "SV", "01-705-1382", 1.0, "SCREENING 1", -7, "SCREENING", "2013-05-09", "2013-05-09", -4, -4, ""], [1344, "CDISCPILOT01", "SV", "01-705-1382", 2.0, "SCREENING 2", -1, "SCREENING", "2013-05-11", "2013-05-11", -2, -2, ""], [1345, "CDISCPILOT01", "SV", "01-705-1382", 3.0, "BASELINE", 1, "TREATMENT", "2013-05-13", "2013-05-13", 1, 1, ""], [1346, "CDISCPILOT01", "SV", "01-705-1382", 4.0, "WEEK 2", 14, "TREATMENT", "2013-05-13", "2013-05-13", 1, 1, ""], [1347, "CDISCPILOT01", "SV", "01-705-1393", 1.0, "SCREENING 1", -7, "SCREENING", "2012-09-02", "2012-09-02", -5, -5, ""], [1348, "CDISCPILOT01", "SV", "01-705-1393", 1.1, "UNSCHEDULED 1.1", null, "SCREENING", "2012-09-05", "2012-09-05", -2, -2, "Unplanned visit to complete unscheduled assessments"], [1349, "CDISCPILOT01", "SV", "01-705-1393", 2.0, "SCREENING 2", -1, "SCREENING", "2012-09-05", "2012-09-05", -2, -2, ""], [1350, "CDISCPILOT01", "SV", "01-705-1393", 3.0, "BASELINE", 1, "TREATMENT", "2012-09-07", "2012-09-07", 1, 1, ""], [1351, "CDISCPILOT01", "SV", "01-705-1393", 3.5, "AMBUL ECG PLACEMENT", 13, "TREATMENT", "2012-09-26", "2012-09-26", 20, 20, ""], [1352, "CDISCPILOT01", "SV", "01-705-1393", 4.0, "WEEK 2", 14, "TREATMENT", "2012-09-27", "2012-09-27", 21, 21, ""], [1353, "CDISCPILOT01", "SV", "01-705-1393", 5.0, "WEEK 4", 28, "TREATMENT", "2012-10-10", "2012-10-10", 34, 34, ""], [1354, "CDISCPILOT01", "SV", "01-705-1393", 6.0, "AMBUL ECG REMOVAL", 30, "TREATMENT", "2012-10-12", "2012-10-12", 36, 36, ""], [1355, "CDISCPILOT01", "SV", "01-705-1393", 7.0, "WEEK 6", 42, "TREATMENT", "2012-10-26", "2012-10-26", 50, 50, ""], [1356, "CDISCPILOT01", "SV", "01-705-1393", 8.0, "WEEK 8", 56, "TREATMENT", "2012-11-02", "2012-11-02", 57, 57, ""], [1357, "CDISCPILOT01", "SV", "01-705-1393", 8.1, "WEEK 10 (T)", 70, "TREATMENT", "2012-11-16", "2012-11-16", 71, 71, ""], [1358, "CDISCPILOT01", "SV", "01-705-1393", 9.0, "WEEK 12", 84, "TREATMENT", "2012-12-05", "2012-12-05", 90, 90, ""], [1359, "CDISCPILOT01", "SV", "01-705-1393", 9.1, "WEEK 14 (T)", 98, "TREATMENT", "2012-12-20", "2012-12-20", 105, 105, ""], [1360, "CDISCPILOT01", "SV", "01-705-1393", 10.0, "WEEK 16", 112, "TREATMENT", "2013-01-02", "2013-01-02", 118, 118, ""], [1361, "CDISCPILOT01", "SV", "01-705-1393", 10.1, "WEEK 18 (T)", 126, "TREATMENT", "2013-01-16", "2013-01-16", 132, 132, ""], [1362, "CDISCPILOT01", "SV", "01-705-1393", 11.0, "WEEK 20", 140, "TREATMENT", "2013-02-20", "2013-02-20", 167, 167, ""], [1363, "CDISCPILOT01", "SV", "01-705-1393", 101.0, "AE FOLLOW-UP", null, "FOLLOW-UP", "2013-04-25", "2013-04-25", 231, 231, ""], [1364, "CDISCPILOT01", "SV", "01-705-1421", 1.0, "SCREENING 1", -7, "SCREENING", "2013-01-14", "2013-01-14", null, null, ""], [1365, "CDISCPILOT01", "SV", "01-705-1431", 1.0, "SCREENING 1", -7, "SCREENING", "2013-06-16", "2013-06-16", -7, -7, ""], [1366, "CDISCPILOT01", "SV", "01-705-1431", 2.0, "SCREENING 2", -1, "SCREENING", "2013-06-21", "2013-06-21", -2, -2, ""], [1367, "CDISCPILOT01", "SV", "01-705-1431", 3.0, "BASELINE", 1, "TREATMENT", "2013-06-23", "2013-06-23", 1, 1, ""], [1368, "CDISCPILOT01", "SV", "01-705-1431", 3.5, "AMBUL ECG PLACEMENT", 13, "TREATMENT", "2013-07-06", "2013-07-06", 14, 14, ""], [1369, "CDISCPILOT01", "SV", "01-705-1431", 4.0, "WEEK 2", 14, "TREATMENT", "2013-07-07", "2013-07-07", 15, 15, ""], [1370, "CDISCPILOT01", "SV", "01-705-1431", 5.0, "WEEK 4", 28, "TREATMENT", "2013-07-20", "2013-07-20", 28, 28, ""], [1371, "CDISCPILOT01", "SV", "01-705-1431", 6.0, "AMBUL ECG REMOVAL", 30, "TREATMENT", "2013-07-22", "2013-07-22", 30, 30, ""], [1372, "CDISCPILOT01", "SV", "01-705-1431", 7.0, "WEEK 6", 42, "TREATMENT", "2013-08-07", "2013-08-07", 46, 46, ""], [1373, "CDISCPILOT01", "SV", "01-705-1431", 8.0, "WEEK 8", 56, "TREATMENT", "2013-08-21", "2013-08-21", 60, 60, ""], [1374, "CDISCPILOT01", "SV", "01-705-1431", 8.1, "WEEK 10 (T)", 70, "TREATMENT", "2013-09-04", "2013-09-04", 74, 74, ""], [1375, "CDISCPILOT01", "SV", "01-705-1431", 9.0, "WEEK 12", 84, "TREATMENT", "2013-09-18", "2013-09-18", 88, 88, ""], [1376, "CDISCPILOT01", "SV", "01-705-1431", 9.1, "WEEK 14 (T)", 98, "TREATMENT", "2013-10-02", "2013-10-02", 102, 102, ""], [1377, "CDISCPILOT01", "SV", "01-705-1431", 10.0, "WEEK 16", 112, "TREATMENT", "2013-10-17", "2013-10-17", 117, 117, ""], [1378, "CDISCPILOT01", "SV", "01-705-1431", 10.1, "WEEK 18 (T)", 126, "TREATMENT", "2013-10-30", "2013-10-30", 130, 130, ""], [1379, "CDISCPILOT01", "SV", "01-705-1431", 11.0, "WEEK 20", 140, "TREATMENT", "2013-11-13", "2013-11-13", 144, 144, ""], [1380, "CDISCPILOT01", "SV", "01-705-1431", 11.1, "WEEK 22 (T)", 154, "TREATMENT", "2013-11-27", "2013-11-27", 158, 158, ""], [1381, "CDISCPILOT01", "SV", "01-705-1431", 12.0, "WEEK 24", 168, "TREATMENT", "2013-12-05", "2013-12-05", 166, 166, ""], [1382, "CDISCPILOT01", "SV", "01-705-1431", 13.0, "WEEK 26", 182, "TREATMENT", "2013-12-19", "2013-12-19", 180, 180, ""], [1383, "CDISCPILOT01", "SV", "01-706-1041", 1.0, "SCREENING 1", -7, "SCREENING", "2013-12-21", "2013-12-21", -10, -10, ""], [1384, "CDISCPILOT01", "SV", "01-706-1041", 2.0, "SCREENING 2", -1, "SCREENING", "2013-12-28", "2013-12-28", -3, -3, ""], [1385, "CDISCPILOT01", "SV", "01-706-1041", 3.0, "BASELINE", 1, "TREATMENT", "2013-12-31", "2013-12-31", 1, 1, ""], [1386, "CDISCPILOT01", "SV", "01-706-1041", 3.5, "AMBUL ECG PLACEMENT", 13, "TREATMENT", "2014-01-11", "2014-01-11", 12, 12, ""], [1387, "CDISCPILOT01", "SV", "01-706-1041", 4.0, "WEEK 2", 14, "TREATMENT", "2014-01-14", "2014-01-14", 15, 15, ""], [1388, "CDISCPILOT01", "SV", "01-706-1041", 5.0, "WEEK 4", 28, "TREATMENT", "2014-01-28", "2014-01-28", 29, 29, ""], [1389, "CDISCPILOT01", "SV", "01-706-1041", 6.0, "AMBUL ECG REMOVAL", 30, "TREATMENT", "2014-01-30", "2014-01-30", 31, 31, ""], [1390, "CDISCPILOT01", "SV", "01-706-1041", 7.0, "WEEK 6", 42, "TREATMENT", "2014-02-11", "2014-02-11", 43, 43, ""], [1391, "CDISCPILOT01", "SV", "01-706-1041", 8.0, "WEEK 8", 56, "TREATMENT", "2014-03-04", "2014-03-04", 64, 64, ""], [1392, "CDISCPILOT01", "SV", "01-706-1041", 8.1, "WEEK 10 (T)", 70, "TREATMENT", "2014-03-18", "2014-03-18", 78, 78, ""], [1393, "CDISCPILOT01", "SV", "01-706-1041", 9.0, "WEEK 12", 84, "TREATMENT", "2014-04-01", "2014-04-01", 92, 92, ""], [1394, "CDISCPILOT01", "SV", "01-706-1041", 9.1, "WEEK 14 (T)", 98, "TREATMENT", "2014-04-22", "2014-04-22", 113, 113, ""], [1395, "CDISCPILOT01", "SV", "01-706-1041", 10.0, "WEEK 16", 112, "TREATMENT", "2014-05-06", "2014-05-06", 127, 127, ""], [1396, "CDISCPILOT01", "SV", "01-706-1041", 10.1, "WEEK 18 (T)", 126, "TREATMENT", "2014-05-20", "2014-05-20", 141, 141, ""], [1397, "CDISCPILOT01", "SV", "01-706-1041", 11.0, "WEEK 20", 140, "TREATMENT", "2014-06-10", "2014-06-10", 162, 162, ""], [1398, "CDISCPILOT01", "SV", "01-706-1041", 11.1, "WEEK 22 (T)", 154, "TREATMENT", "2014-06-26", "2014-06-26", 178, 178, ""], [1399, "CDISCPILOT01", "SV", "01-706-1041", 12.0, "WEEK 24", 168, "TREATMENT", "2014-07-15", "2014-07-15", 197, 197, ""], [1400, "CDISCPILOT01", "SV", "01-706-1041", 13.0, "WEEK 26", 182, "TREATMENT", "2014-07-29", "2014-07-29", 211, 211, ""], [1401, "CDISCPILOT01", "SV", "01-706-1049", 1.0, "SCREENING 1", -7, "SCREENING", "2013-04-30", "2013-04-30", -14, -14, ""], [1402, "CDISCPILOT01", "SV", "01-706-1049", 2.0, "SCREENING 2", -1, "SCREENING", "2013-05-11", "2013-05-11", -3, -3, ""], [1403, "CDISCPILOT01", "SV", "01-706-1049", 3.0, "BASELINE", 1, "TREATMENT", "2013-05-14", "2013-05-14", 1, 1, ""], [1404, "CDISCPILOT01", "SV", "01-706-1049", 3.5, "AMBUL ECG PLACEMENT", 13, "TREATMENT", "2013-05-25", "2013-05-25", 12, 12, ""], [1405, "CDISCPILOT01", "SV", "01-706-1049", 4.0, "WEEK 2", 14, "TREATMENT", "2013-05-28", "2013-05-28", 15, 15, ""], [1406, "CDISCPILOT01", "SV", "01-706-1049", 5.0, "WEEK 4", 28, "TREATMENT", "2013-06-11", "2013-06-11", 29, 29, ""], [1407, "CDISCPILOT01", "SV", "01-706-1049", 6.0, "AMBUL ECG REMOVAL", 30, "TREATMENT", "2013-06-13", "2013-06-13", 31, 31, ""], [1408, "CDISCPILOT01", "SV", "01-706-1049", 7.0, "WEEK 6", 42, "TREATMENT", "2013-06-25", "2013-06-25", 43, 43, ""], [1409, "CDISCPILOT01", "SV", "01-706-1049", 101.0, "AE FOLLOW-UP", null, "FOLLOW-UP", "2013-08-20", "2013-08-20", 99, 99, ""], [1410, "CDISCPILOT01", "SV", "01-706-1049", 201.0, "RETRIEVAL", 168, "FOLLOW-UP", "2013-11-26", "2013-11-26", 197, 197, ""], [1411, "CDISCPILOT01", "SV", "01-706-1384", 1.0, "SCREENING 1", -7, "SCREENING", "2012-08-25", "2012-08-25", -21, -21, ""], [1412, "CDISCPILOT01", "SV", "01-706-1384", 1.1, "UNSCHEDULED 1.1", null, "SCREENING", "2012-08-28", "2012-08-28", -18, -18, "Unplanned visit to complete unscheduled assessments"], [1413, "CDISCPILOT01", "SV", "01-706-1384", 2.0, "SCREENING 2", -1, "SCREENING", "2012-09-12", "2012-09-12", -3, -3, ""], [1414, "CDISCPILOT01", "SV", "01-706-1384", 3.0, "BASELINE", 1, "TREATMENT", "2012-09-15", "2012-09-15", 1, 1, ""], [1415, "CDISCPILOT01", "SV", "01-706-1384", 4.0, "WEEK 2", 14, "TREATMENT", "2012-09-29", "2012-09-29", 15, 15, ""], [1416, "CDISCPILOT01", "SV", "01-706-1384", 201.0, "RETRIEVAL", 168, "FOLLOW-UP", "2013-06-22", "2013-06-22", 281, 281, ""], [1417, "CDISCPILOT01", "SV", "01-707-1037", 1.0, "SCREENING 1", -7, "SCREENING", "2013-12-12", "2013-12-12", -8, -8, ""], [1418, "CDISCPILOT01", "SV", "01-707-1037", 2.0, "SCREENING 2", -1, "SCREENING", "2013-12-18", "2013-12-18", -2, -2, ""], [1419, "CDISCPILOT01", "SV", "01-707-1037", 3.0, "BASELINE", 1, "TREATMENT", "2013-12-20", "2013-12-20", 1, 1, ""], [1420, "CDISCPILOT01", "SV", "01-707-1037", 4.0, "WEEK 2", 14, "TREATMENT", "2014-01-08", "2014-01-08", 20, 20, ""], [1421, "CDISCPILOT01", "SV", "01-707-1206", 1.0, "SCREENING 1", -7, "SCREENING", "2013-10-20", "2013-10-20", -8, -8, ""], [1422, "CDISCPILOT01", "SV", "01-707-1206", 2.0, "SCREENING 2", -1, "SCREENING", "2013-10-26", "2013-10-26", -2, -2, ""], [1423, "CDISCPILOT01", "SV", "01-707-1206", 3.0, "BASELINE", 1, "TREATMENT", "2013-10-28", "2013-10-28", 1, 1, ""], [1424, "CDISCPILOT01", "SV", "01-707-1206", 3.5, "AMBUL ECG PLACEMENT", 13, "TREATMENT", "2013-11-11", "2013-11-11", 15, 15, ""], [1425, "CDISCPILOT01", "SV", "01-707-1206", 4.0, "WEEK 2", 14, "TREATMENT", "2013-11-12", "2013-11-12", 16, 16, ""], [1426, "CDISCPILOT01", "SV", "01-707-1206", 5.0, "WEEK 4", 28, "TREATMENT", "2013-11-25", "2013-11-25", 29, 29, ""], [1427, "CDISCPILOT01", "SV", "01-707-1206", 6.0, "AMBUL ECG REMOVAL", 30, "TREATMENT", "2013-11-27", "2013-11-27", 31, 31, ""], [1428, "CDISCPILOT01", "SV", "01-707-1206", 7.0, "WEEK 6", 42, "TREATMENT", "2013-12-09", "2013-12-09", 43, 43, ""], [1429, "CDISCPILOT01", "SV", "01-707-1206", 8.0, "WEEK 8", 56, "TREATMENT", "2013-12-23", "2013-12-23", 57, 57, ""], [1430, "CDISCPILOT01", "SV", "01-707-1206", 8.1, "WEEK 10 (T)", 70, "TREATMENT", "2014-01-05", "2014-01-05", 70, 70, ""], [1431, "CDISCPILOT01", "SV", "01-707-1206", 9.0, "WEEK 12", 84, "TREATMENT", "2014-01-19", "2014-01-19", 84, 84, ""], [1432, "CDISCPILOT01", "SV", "01-707-1206", 9.1, "WEEK 14 (T)", 98, "TREATMENT", "2014-02-02", "2014-02-02", 98, 98, ""], [1433, "CDISCPILOT01", "SV", "01-707-1206", 10.0, "WEEK 16", 112, "TREATMENT", "2014-02-16", "2014-02-16", 112, 112, ""], [1434, "CDISCPILOT01", "SV", "01-707-1206", 10.1, "WEEK 18 (T)", 126, "TREATMENT", "2014-03-01", "2014-03-01", 125, 125, ""], [1435, "CDISCPILOT01", "SV", "01-707-1206", 11.0, "WEEK 20", 140, "TREATMENT", "2014-03-16", "2014-03-16", 140, 140, ""], [1436, "CDISCPILOT01", "SV", "01-707-1206", 11.1, "WEEK 22 (T)", 154, "TREATMENT", "2014-03-30", "2014-03-30", 154, 154, ""], [1437, "CDISCPILOT01", "SV", "01-707-1206", 12.0, "WEEK 24", 168, "TREATMENT", "2014-04-13", "2014-04-13", 168, 168, ""], [1438, "CDISCPILOT01", "SV", "01-707-1206", 13.0, "WEEK 26", 182, "TREATMENT", "2014-04-27", "2014-04-27", 182, 182, ""], [1439, "CDISCPILOT01", "SV", "01-707-1276", 1.0, "SCREENING 1", -7, "SCREENING", "2012-10-12", "2012-10-12", null, null, ""], [1440, "CDISCPILOT01", "SV", "01-707-1430", 1.0, "SCREENING 1", -7, "SCREENING", "2014-02-14", "2014-02-14", null, null, ""], [1441, "CDISCPILOT01", "SV", "01-707-1434", 1.0, "SCREENING 1", -7, "SCREENING", "2013-07-25", "2013-07-25", null, null, ""], [1442, "CDISCPILOT01", "SV", "01-708-1013", 1.0, "SCREENING 1", -7, "SCREENING", "2012-10-13", "2012-10-13", null, null, ""], [1443, "CDISCPILOT01", "SV", "01-708-1019", 1.0, "SCREENING 1", -7, "SCREENING", "2013-12-10", "2013-12-10", -10, -10, ""], [1444, "CDISCPILOT01", "SV", "01-708-1019", 2.0, "SCREENING 2", -1, "SCREENING", "2013-12-17", "2013-12-17", -3, -3, ""], [1445, "CDISCPILOT01", "SV", "01-708-1019", 3.0, "BASELINE", 1, "TREATMENT", "2013-12-20", "2013-12-20", 1, 1, ""], [1446, "CDISCPILOT01", "SV", "01-708-1019", 4.0, "WEEK 2", 14, "TREATMENT", "2014-01-23", "2014-01-23", 35, 35, ""], [1447, "CDISCPILOT01", "SV", "01-708-1032", 1.0, "SCREENING 1", -7, "SCREENING", "2013-02-02", "2013-02-02", -7, -7, ""], [1448, "CDISCPILOT01", "SV", "01-708-1032", 2.0, "SCREENING 2", -1, "SCREENING", "2013-02-07", "2013-02-07", -2, -2, ""], [1449, "CDISCPILOT01", "SV", "01-708-1032", 3.0, "BASELINE", 1, "TREATMENT", "2013-02-09", "2013-02-09", 1, 1, ""], [1450, "CDISCPILOT01", "SV", "01-708-1032", 3.5, "AMBUL ECG PLACEMENT", 13, "TREATMENT", "2013-02-22", "2013-02-22", 14, 14, ""], [1451, "CDISCPILOT01", "SV", "01-708-1032", 4.0, "WEEK 2", 14, "TREATMENT", "2013-02-23", "2013-02-23", 15, 15, ""], [1452, "CDISCPILOT01", "SV", "01-708-1032", 5.0, "WEEK 4", 28, "TREATMENT", "2013-03-09", "2013-03-09", 29, 29, ""], [1453, "CDISCPILOT01", "SV", "01-708-1054", 1.0, "SCREENING 1", -7, "SCREENING", "2014-02-14", "2014-02-14", null, null, ""], [1454, "CDISCPILOT01", "SV", "01-708-1067", 1.0, "SCREENING 1", -7, "SCREENING", "2013-02-07", "2013-02-07", null, null, ""], [1455, "CDISCPILOT01", "SV", "01-708-1084", 1.0, "SCREENING 1", -7, "SCREENING", "2013-05-01", "2013-05-01", -8, -8, ""], [1456, "CDISCPILOT01", "SV", "01-708-1084", 2.0, "SCREENING 2", -1, "SCREENING", "2013-05-06", "2013-05-06", -3, -3, ""], [1457, "CDISCPILOT01", "SV", "01-708-1084", 3.0, "BASELINE", 1, "TREATMENT", "2013-05-09", "2013-05-09", 1, 1, ""], [1458, "CDISCPILOT01", "SV", "01-708-1084", 3.5, "AMBUL ECG PLACEMENT", 13, "TREATMENT", "2013-05-23", "2013-05-23", 15, 15, ""], [1459, "CDISCPILOT01", "SV", "01-708-1084", 4.0, "WEEK 2", 14, "TREATMENT", "2013-05-23", "2013-05-23", 15, 15, ""], [1460, "CDISCPILOT01", "SV", "01-708-1084", 5.0, "WEEK 4", 28, "TREATMENT", "2013-06-09", "2013-06-09", 32, 32, ""], [1461, "CDISCPILOT01", "SV", "01-708-1084", 6.0, "AMBUL ECG REMOVAL", 30, "TREATMENT", "2013-06-11", "2013-06-11", 34, 34, ""], [1462, "CDISCPILOT01", "SV", "01-708-1084", 7.0, "WEEK 6", 42, "TREATMENT", "2013-06-23", "2013-06-23", 46, 46, ""], [1463, "CDISCPILOT01", "SV", "01-708-1084", 8.0, "WEEK 8", 56, "TREATMENT", "2013-07-07", "2013-07-07", 60, 60, ""], [1464, "CDISCPILOT01", "SV", "01-708-1084", 8.1, "WEEK 10 (T)", 70, "TREATMENT", "2013-07-21", "2013-07-21", 74, 74, ""], [1465, "CDISCPILOT01", "SV", "01-708-1084", 9.0, "WEEK 12", 84, "TREATMENT", "2013-08-01", "2013-08-01", 85, 85, ""], [1466, "CDISCPILOT01", "SV", "01-708-1084", 9.1, "WEEK 14 (T)", 98, "TREATMENT", "2013-08-19", "2013-08-19", 103, 103, ""], [1467, "CDISCPILOT01", "SV", "01-708-1084", 9.2, "UNSCHEDULED 9.2", null, "TREATMENT", "2013-08-19", "2013-08-19", 103, 103, "Unplanned visit to complete unscheduled assessments"], [1468, "CDISCPILOT01", "SV", "01-708-1084", 10.0, "WEEK 16", 112, "TREATMENT", "2013-09-01", "2013-09-01", 116, 116, ""], [1469, "CDISCPILOT01", "SV", "01-708-1084", 10.1, "WEEK 18 (T)", 126, "TREATMENT", "2013-09-15", "2013-09-15", 130, 130, ""], [1470, "CDISCPILOT01", "SV", "01-708-1084", 11.0, "WEEK 20", 140, "TREATMENT", "2013-10-01", "2013-10-01", 146, 146, ""], [1471, "CDISCPILOT01", "SV", "01-708-1084", 11.1, "WEEK 22 (T)", 154, "TREATMENT", "2013-10-15", "2013-10-15", 160, 160, ""], [1472, "CDISCPILOT01", "SV", "01-708-1084", 12.0, "WEEK 24", 168, "TREATMENT", "2013-10-28", "2013-10-28", 173, 173, ""], [1473, "CDISCPILOT01", "SV", "01-708-1084", 13.0, "WEEK 26", 182, "TREATMENT", "2013-11-11", "2013-11-11", 187, 187, ""], [1474, "CDISCPILOT01", "SV", "01-708-1087", 1.0, "SCREENING 1", -7, "SCREENING", "2012-10-06", "2012-10-06", -16, -16, ""], [1475, "CDISCPILOT01", "SV", "01-708-1087", 2.0, "SCREENING 2", -1, "SCREENING", "2012-10-20", "2012-10-20", -2, -2, ""], [1476, "CDISCPILOT01", "SV", "01-708-1087", 3.0, "BASELINE", 1, "TREATMENT", "2012-10-22", "2012-10-22", 1, 1, ""], [1477, "CDISCPILOT01", "SV", "01-708-1087", 3.5, "AMBUL ECG PLACEMENT", 13, "TREATMENT", "2012-11-04", "2012-11-04", 14, 14, ""], [1478, "CDISCPILOT01", "SV", "01-708-1087", 4.0, "WEEK 2", 14, "TREATMENT", "2012-11-05", "2012-11-05", 15, 15, ""], [1479, "CDISCPILOT01", "SV", "01-708-1087", 5.0, "WEEK 4", 28, "TREATMENT", "2012-11-20", "2012-11-20", 30, 30, ""], [1480, "CDISCPILOT01", "SV", "01-708-1087", 6.0, "AMBUL ECG REMOVAL", 30, "TREATMENT", "2012-11-25", "2012-11-25", 35, 35, ""], [1481, "CDISCPILOT01", "SV", "01-708-1087", 7.0, "WEEK 6", 42, "TREATMENT", "2012-12-08", "2012-12-08", 48, 48, ""], [1482, "CDISCPILOT01", "SV", "01-708-1087", 8.0, "WEEK 8", 56, "TREATMENT", "2012-12-22", "2012-12-22", 62, 62, ""], [1483, "CDISCPILOT01", "SV", "01-708-1087", 8.1, "WEEK 10 (T)", 70, "TREATMENT", "2013-01-05", "2013-01-05", 76, 76, ""], [1484, "CDISCPILOT01", "SV", "01-708-1087", 9.0, "WEEK 12", 84, "TREATMENT", "2013-01-19", "2013-01-19", 90, 90, ""], [1485, "CDISCPILOT01", "SV", "01-708-1087", 9.1, "WEEK 14 (T)", 98, "TREATMENT", "2013-02-02", "2013-02-02", 104, 104, ""], [1486, "CDISCPILOT01", "SV", "01-708-1087", 10.0, "WEEK 16", 112, "TREATMENT", "2013-02-16", "2013-02-16", 118, 118, ""], [1487, "CDISCPILOT01", "SV", "01-708-1087", 10.1, "WEEK 18 (T)", 126, "TREATMENT", "2013-03-02", "2013-03-02", 132, 132, ""], [1488, "CDISCPILOT01", "SV", "01-708-1087", 11.0, "WEEK 20", 140, "TREATMENT", "2013-03-16", "2013-03-16", 146, 146, ""], [1489, "CDISCPILOT01", "SV", "01-708-1087", 11.1, "WEEK 22 (T)", 154, "TREATMENT", "2013-03-30", "2013-03-30", 160, 160, ""], [1490, "CDISCPILOT01", "SV", "01-708-1087", 12.0, "WEEK 24", 168, "TREATMENT", "2013-04-10", "2013-04-10", 171, 171, ""], [1491, "CDISCPILOT01", "SV", "01-708-1087", 13.0, "WEEK 26", 182, "TREATMENT", "2013-04-28", "2013-04-28", 189, 189, ""], [1492, "CDISCPILOT01", "SV", "01-708-1104", 1.0, "SCREENING 1", -7, "SCREENING", "2014-01-23", "2014-01-23", null, null, ""], [1493, "CDISCPILOT01", "SV", "01-708-1158", 1.0, "SCREENING 1", -7, "SCREENING", "2014-02-01", "2014-02-01", -7, -7, ""], [1494, "CDISCPILOT01", "SV", "01-708-1158", 1.1, "UNSCHEDULED 1.1", null, "SCREENING", "2014-02-01", "2014-02-01", -7, -7, "Unplanned visit to complete unscheduled assessments"], [1495, "CDISCPILOT01", "SV", "01-708-1158", 1.2, "UNSCHEDULED 1.2", null, "TREATMENT", "2014-02-26", "2014-02-26", 19, 19, "Unplanned visit to complete unscheduled assessments"], [1496, "CDISCPILOT01", "SV", "01-708-1158", 2.0, "SCREENING 2", -1, "SCREENING", "2014-02-06", "2014-02-06", -2, -2, ""], [1497, "CDISCPILOT01", "SV", "01-708-1158", 3.0, "BASELINE", 1, "TREATMENT", "2014-02-08", "2014-02-08", 1, 1, ""], [1498, "CDISCPILOT01", "SV", "01-708-1158", 3.5, "AMBUL ECG PLACEMENT", 13, "TREATMENT", "2014-02-25", "2014-02-25", 18, 18, ""], [1499, "CDISCPILOT01", "SV", "01-708-1158", 4.0, "WEEK 2", 14, "TREATMENT", "2014-02-26", "2014-02-26", 19, 19, ""], [1500, "CDISCPILOT01", "SV", "01-708-1158", 5.0, "WEEK 4", 28, "TREATMENT", "2014-03-06", "2014-03-06", 27, 27, ""], [1501, "CDISCPILOT01", "SV", "01-708-1158", 6.0, "AMBUL ECG REMOVAL", 30, "TREATMENT", "2014-03-08", "2014-03-08", 29, 29, ""], [1502, "CDISCPILOT01", "SV", "01-708-1158", 7.0, "WEEK 6", 42, "TREATMENT", "2014-03-22", "2014-03-22", 43, 43, ""], [1503, "CDISCPILOT01", "SV", "01-708-1171", 1.0, "SCREENING 1", -7, "SCREENING", "2012-11-25", "2012-11-25", -11, -11, ""], [1504, "CDISCPILOT01", "SV", "01-708-1171", 2.0, "SCREENING 2", -1, "SCREENING", "2012-12-02", "2012-12-02", -4, -4, ""], [1505, "CDISCPILOT01", "SV", "01-708-1171", 3.0, "BASELINE", 1, "TREATMENT", "2012-12-06", "2012-12-06", 1, 1, ""], [1506, "CDISCPILOT01", "SV", "01-708-1171", 3.5, "AMBUL ECG PLACEMENT", 13, "TREATMENT", "2012-12-17", "2012-12-17", 12, 12, ""], [1507, "CDISCPILOT01", "SV", "01-708-1171", 4.0, "WEEK 2", 14, "TREATMENT", "2012-12-18", "2012-12-18", 13, 13, ""], [1508, "CDISCPILOT01", "SV", "01-708-1171", 5.0, "WEEK 4", 28, "TREATMENT", "2012-12-31", "2012-12-31", 26, 26, ""], [1509, "CDISCPILOT01", "SV", "01-708-1171", 6.0, "AMBUL ECG REMOVAL", 30, "TREATMENT", "2013-01-02", "2013-01-02", 28, 28, ""], [1510, "CDISCPILOT01", "SV", "01-708-1171", 7.0, "WEEK 6", 42, "TREATMENT", "2013-01-14", "2013-01-14", 40, 40, ""], [1511, "CDISCPILOT01", "SV", "01-708-1171", 8.0, "WEEK 8", 56, "TREATMENT", "2013-01-28", "2013-01-28", 54, 54, ""], [1512, "CDISCPILOT01", "SV", "01-708-1171", 8.1, "WEEK 10 (T)", 70, "TREATMENT", "2013-02-11", "2013-02-11", 68, 68, ""], [1513, "CDISCPILOT01", "SV", "01-708-1171", 9.0, "WEEK 12", 84, "TREATMENT", "2013-02-25", "2013-02-25", 82, 82, ""], [1514, "CDISCPILOT01", "SV", "01-708-1171", 9.1, "WEEK 14 (T)", 98, "TREATMENT", "2013-03-11", "2013-03-11", 96, 96, ""], [1515, "CDISCPILOT01", "SV", "01-708-1171", 10.0, "WEEK 16", 112, "TREATMENT", "2013-03-25", "2013-03-25", 110, 110, ""], [1516, "CDISCPILOT01", "SV", "01-708-1171", 10.1, "WEEK 18 (T)", 126, "TREATMENT", "2013-04-08", "2013-04-08", 124, 124, ""], [1517, "CDISCPILOT01", "SV", "01-708-1171", 11.0, "WEEK 20", 140, "TREATMENT", "2013-04-22", "2013-04-22", 138, 138, ""], [1518, "CDISCPILOT01", "SV", "01-708-1171", 11.1, "WEEK 22 (T)", 154, "TREATMENT", "2013-05-02", "2013-05-02", 148, 148, ""], [1519, "CDISCPILOT01", "SV", "01-708-1171", 12.0, "WEEK 24", 168, "TREATMENT", "2013-05-20", "2013-05-20", 166, 166, ""], [1520, "CDISCPILOT01", "SV", "01-708-1171", 13.0, "WEEK 26", 182, "TREATMENT", "2013-06-04", "2013-06-04", 181, 181, ""], [1521, "CDISCPILOT01", "SV", "01-708-1178", 1.0, "SCREENING 1", -7, "SCREENING", "2013-12-13", "2013-12-13", -16, -16, ""], [1522, "CDISCPILOT01", "SV", "01-708-1178", 1.1, "UNSCHEDULED 1.1", null, "SCREENING", "2013-12-19", "2013-12-19", -10, -10, "Unplanned visit to complete unscheduled assessments"], [1523, "CDISCPILOT01", "SV", "01-708-1178", 1.2, "UNSCHEDULED 1.2", null, "SCREENING", "2013-12-26", "2013-12-26", -3, -3, "Unplanned visit to complete unscheduled assessments"], [1524, "CDISCPILOT01", "SV", "01-708-1178", 2.0, "SCREENING 2", -1, "SCREENING", "2013-12-19", "2013-12-19", -10, -10, ""], [1525, "CDISCPILOT01", "SV", "01-708-1178", 3.0, "BASELINE", 1, "TREATMENT", "2013-12-29", "2013-12-29", 1, 1, ""], [1526, "CDISCPILOT01", "SV", "01-708-1178", 3.5, "AMBUL ECG PLACEMENT", 13, "TREATMENT", "2014-01-09", "2014-01-09", 12, 12, ""], [1527, "CDISCPILOT01", "SV", "01-708-1178", 4.0, "WEEK 2", 14, "TREATMENT", "2014-01-18", "2014-01-18", 21, 21, ""], [1528, "CDISCPILOT01", "SV", "01-708-1178", 5.0, "WEEK 4", 28, "TREATMENT", "2014-02-02", "2014-02-02", 36, 36, ""], [1529, "CDISCPILOT01", "SV", "01-708-1178", 6.0, "AMBUL ECG REMOVAL", 30, "TREATMENT", "2014-02-07", "2014-02-07", 41, 41, ""], [1530, "CDISCPILOT01", "SV", "01-708-1178", 7.0, "WEEK 6", 42, "TREATMENT", "2014-02-23", "2014-02-23", 57, 57, ""], [1531, "CDISCPILOT01", "SV", "01-708-1178", 8.0, "WEEK 8", 56, "TREATMENT", "2014-03-09", "2014-03-09", 71, 71, ""], [1532, "CDISCPILOT01", "SV", "01-708-1178", 8.1, "WEEK 10 (T)", 70, "TREATMENT", "2014-03-27", "2014-03-27", 89, 89, ""], [1533, "CDISCPILOT01", "SV", "01-708-1178", 9.0, "WEEK 12", 84, "TREATMENT", "2014-04-06", "2014-04-06", 99, 99, ""], [1534, "CDISCPILOT01", "SV", "01-708-1184", 1.0, "SCREENING 1", -7, "SCREENING", "2013-01-14", "2013-01-14", null, null, ""], [1535, "CDISCPILOT01", "SV", "01-708-1213", 1.0, "SCREENING 1", -7, "SCREENING", "2013-02-01", "2013-02-01", -8, -8, ""], [1536, "CDISCPILOT01", "SV", "01-708-1213", 2.0, "SCREENING 2", -1, "SCREENING", "2013-02-07", "2013-02-07", -2, -2, ""], [1537, "CDISCPILOT01", "SV", "01-708-1213", 3.0, "BASELINE", 1, "TREATMENT", "2013-02-09", "2013-02-09", 1, 1, ""], [1538, "CDISCPILOT01", "SV", "01-708-1213", 4.0, "WEEK 2", 14, "TREATMENT", "2013-02-22", "2013-02-22", 14, 14, ""], [1539, "CDISCPILOT01", "SV", "01-708-1213", 5.0, "WEEK 4", 28, "TREATMENT", "2013-02-26", "2013-02-26", 18, 18, ""], [1540, "CDISCPILOT01", "SV", "01-708-1216", 1.0, "SCREENING 1", -7, "SCREENING", "2012-10-14", "2012-10-14", -10, -10, ""], [1541, "CDISCPILOT01", "SV", "01-708-1216", 2.0, "SCREENING 2", -1, "SCREENING", "2012-10-19", "2012-10-19", -5, -5, ""], [1542, "CDISCPILOT01", "SV", "01-708-1216", 3.0, "BASELINE", 1, "TREATMENT", "2012-10-24", "2012-10-24", 1, 1, ""], [1543, "CDISCPILOT01", "SV", "01-708-1216", 3.5, "AMBUL ECG PLACEMENT", 13, "TREATMENT", "2012-11-07", "2012-11-07", 15, 15, ""], [1544, "CDISCPILOT01", "SV", "01-708-1216", 4.0, "WEEK 2", 14, "TREATMENT", "2012-11-08", "2012-11-08", 16, 16, ""], [1545, "CDISCPILOT01", "SV", "01-708-1216", 5.0, "WEEK 4", 28, "TREATMENT", "2012-11-22", "2012-11-22", 30, 30, ""], [1546, "CDISCPILOT01", "SV", "01-708-1216", 6.0, "AMBUL ECG REMOVAL", 30, "TREATMENT", "2012-11-24", "2012-11-24", 32, 32, ""], [1547, "CDISCPILOT01", "SV", "01-708-1216", 7.0, "WEEK 6", 42, "TREATMENT", "2012-12-06", "2012-12-06", 44, 44, ""], [1548, "CDISCPILOT01", "SV", "01-708-1216", 101.0, "AE FOLLOW-UP", null, "FOLLOW-UP", "2013-01-09", "2013-01-09", 78, 78, ""], [1549, "CDISCPILOT01", "SV", "01-708-1236", 1.0, "SCREENING 1", -7, "SCREENING", "2013-09-08", "2013-09-08", -13, -13, ""], [1550, "CDISCPILOT01", "SV", "01-708-1236", 1.1, "UNSCHEDULED 1.1", null, "SCREENING", "2013-09-19", "2013-09-19", -2, -2, "Unplanned visit to complete unscheduled assessments"], [1551, "CDISCPILOT01", "SV", "01-708-1236", 2.0, "SCREENING 2", -1, "SCREENING", "2013-09-19", "2013-09-19", -2, -2, ""], [1552, "CDISCPILOT01", "SV", "01-708-1236", 3.0, "BASELINE", 1, "TREATMENT", "2013-09-21", "2013-09-21", 1, 1, ""], [1553, "CDISCPILOT01", "SV", "01-708-1236", 4.0, "WEEK 2", 14, "TREATMENT", "2013-09-26", "2013-09-26", 6, 6, ""], [1554, "CDISCPILOT01", "SV", "01-708-1242", 1.0, "SCREENING 1", -7, "SCREENING", "2012-08-13", "2012-08-13", null, null, ""], [1555, "CDISCPILOT01", "SV", "01-708-1253", 1.0, "SCREENING 1", -7, "SCREENING", "2013-04-26", "2013-04-26", -11, -11, ""], [1556, "CDISCPILOT01", "SV", "01-708-1253", 2.0, "SCREENING 2", -1, "SCREENING", "2013-05-05", "2013-05-05", -2, -2, ""], [1557, "CDISCPILOT01", "SV", "01-708-1253", 3.0, "BASELINE", 1, "TREATMENT", "2013-05-07", "2013-05-07", 1, 1, ""], [1558, "CDISCPILOT01", "SV", "01-708-1253", 3.5, "AMBUL ECG PLACEMENT", 13, "TREATMENT", "2013-05-20", "2013-05-20", 14, 14, ""], [1559, "CDISCPILOT01", "SV", "01-708-1253", 4.0, "WEEK 2", 14, "TREATMENT", "2013-05-21", "2013-05-21", 15, 15, ""], [1560, "CDISCPILOT01", "SV", "01-708-1253", 4.1, "UNSCHEDULED 4.1", null, "TREATMENT", "2013-05-21", "2013-05-21", 15, 15, "Unplanned visit to complete unscheduled assessments"], [1561, "CDISCPILOT01", "SV", "01-708-1253", 5.0, "WEEK 4", 28, "TREATMENT", "2013-06-07", "2013-06-07", 32, 32, ""], [1562, "CDISCPILOT01", "SV", "01-708-1253", 6.0, "AMBUL ECG REMOVAL", 30, "TREATMENT", "2013-06-09", "2013-06-09", 34, 34, ""], [1563, "CDISCPILOT01", "SV", "01-708-1253", 7.0, "WEEK 6", 42, "TREATMENT", "2013-06-25", "2013-06-25", 50, 50, ""], [1564, "CDISCPILOT01", "SV", "01-708-1253", 8.0, "WEEK 8", 56, "TREATMENT", "2013-07-09", "2013-07-09", 64, 64, ""], [1565, "CDISCPILOT01", "SV", "01-708-1253", 8.1, "WEEK 10 (T)", 70, "TREATMENT", "2013-07-26", "2013-07-26", 81, 81, ""], [1566, "CDISCPILOT01", "SV", "01-708-1253", 9.0, "WEEK 12", 84, "TREATMENT", "2013-08-05", "2013-08-05", 91, 91, ""], [1567, "CDISCPILOT01", "SV", "01-708-1253", 9.1, "WEEK 14 (T)", 98, "TREATMENT", "2013-08-20", "2013-08-20", 106, 106, ""], [1568, "CDISCPILOT01", "SV", "01-708-1253", 10.0, "WEEK 16", 112, "TREATMENT", "2013-09-02", "2013-09-02", 119, 119, ""], [1569, "CDISCPILOT01", "SV", "01-708-1253", 10.1, "WEEK 18 (T)", 126, "TREATMENT", "2013-09-16", "2013-09-16", 133, 133, ""], [1570, "CDISCPILOT01", "SV", "01-708-1253", 11.0, "WEEK 20", 140, "TREATMENT", "2013-09-29", "2013-09-29", 146, 146, ""], [1571, "CDISCPILOT01", "SV", "01-708-1253", 11.1, "WEEK 22 (T)", 154, "TREATMENT", "2013-10-13", "2013-10-13", 160, 160, ""], [1572, "CDISCPILOT01", "SV", "01-708-1253", 12.0, "WEEK 24", 168, "TREATMENT", "2013-10-27", "2013-10-27", 174, 174, ""], [1573, "CDISCPILOT01", "SV", "01-708-1253", 13.0, "WEEK 26", 182, "TREATMENT", "2013-11-05", "2013-11-05", 183, 183, ""], [1574, "CDISCPILOT01", "SV", "01-708-1272", 1.0, "SCREENING 1", -7, "SCREENING", "2013-01-22", "2013-01-22", -15, -15, ""], [1575, "CDISCPILOT01", "SV", "01-708-1272", 2.0, "SCREENING 2", -1, "SCREENING", "2013-01-30", "2013-01-30", -7, -7, ""], [1576, "CDISCPILOT01", "SV", "01-708-1272", 3.0, "BASELINE", 1, "TREATMENT", "2013-02-06", "2013-02-06", 1, 1, ""], [1577, "CDISCPILOT01", "SV", "01-708-1272", 3.5, "AMBUL ECG PLACEMENT", 13, "TREATMENT", "2013-02-19", "2013-02-19", 14, 14, ""], [1578, "CDISCPILOT01", "SV", "01-708-1272", 4.0, "WEEK 2", 14, "TREATMENT", "2013-02-21", "2013-02-21", 16, 16, ""], [1579, "CDISCPILOT01", "SV", "01-708-1272", 5.0, "WEEK 4", 28, "TREATMENT", "2013-03-07", "2013-03-07", 30, 30, ""], [1580, "CDISCPILOT01", "SV", "01-708-1272", 6.0, "AMBUL ECG REMOVAL", 30, "TREATMENT", "2013-03-09", "2013-03-09", 32, 32, ""], [1581, "CDISCPILOT01", "SV", "01-708-1272", 7.0, "WEEK 6", 42, "TREATMENT", "2013-03-20", "2013-03-20", 43, 43, ""], [1582, "CDISCPILOT01", "SV", "01-708-1272", 8.0, "WEEK 8", 56, "TREATMENT", "2013-04-04", "2013-04-04", 58, 58, ""], [1583, "CDISCPILOT01", "SV", "01-708-1286", 1.0, "SCREENING 1", -7, "SCREENING", "2013-08-25", "2013-08-25", -16, -16, ""], [1584, "CDISCPILOT01", "SV", "01-708-1286", 2.0, "SCREENING 2", -1, "SCREENING", "2013-09-08", "2013-09-08", -2, -2, ""], [1585, "CDISCPILOT01", "SV", "01-708-1286", 3.0, "BASELINE", 1, "TREATMENT", "2013-09-10", "2013-09-10", 1, 1, ""], [1586, "CDISCPILOT01", "SV", "01-708-1286", 3.5, "AMBUL ECG PLACEMENT", 13, "TREATMENT", "2013-09-22", "2013-09-22", 13, 13, ""], [1587, "CDISCPILOT01", "SV", "01-708-1286", 4.0, "WEEK 2", 14, "TREATMENT", "2013-09-23", "2013-09-23", 14, 14, ""], [1588, "CDISCPILOT01", "SV", "01-708-1286", 5.0, "WEEK 4", 28, "TREATMENT", "2013-10-07", "2013-10-07", 28, 28, ""], [1589, "CDISCPILOT01", "SV", "01-708-1286", 6.0, "AMBUL ECG REMOVAL", 30, "TREATMENT", "2013-10-09", "2013-10-09", 30, 30, ""], [1590, "CDISCPILOT01", "SV", "01-708-1286", 7.0, "WEEK 6", 42, "TREATMENT", "2013-10-20", "2013-10-20", 41, 41, ""], [1591, "CDISCPILOT01", "SV", "01-708-1286", 8.0, "WEEK 8", 56, "TREATMENT", "2013-11-03", "2013-11-03", 55, 55, ""], [1592, "CDISCPILOT01", "SV", "01-708-1286", 8.1, "WEEK 10 (T)", 70, "TREATMENT", "2013-11-17", "2013-11-17", 69, 69, ""], [1593, "CDISCPILOT01", "SV", "01-708-1286", 9.0, "WEEK 12", 84, "TREATMENT", "2013-12-01", "2013-12-01", 83, 83, ""], [1594, "CDISCPILOT01", "SV", "01-708-1286", 9.1, "WEEK 14 (T)", 98, "TREATMENT", "2013-12-17", "2013-12-17", 99, 99, ""], [1595, "CDISCPILOT01", "SV", "01-708-1286", 10.0, "WEEK 16", 112, "TREATMENT", "2013-12-29", "2013-12-29", 111, 111, ""], [1596, "CDISCPILOT01", "SV", "01-708-1286", 10.1, "WEEK 18 (T)", 126, "TREATMENT", "2014-01-18", "2014-01-18", 131, 131, ""], [1597, "CDISCPILOT01", "SV", "01-708-1286", 11.0, "WEEK 20", 140, "TREATMENT", "2014-02-01", "2014-02-01", 145, 145, ""], [1598, "CDISCPILOT01", "SV", "01-708-1286", 11.1, "WEEK 22 (T)", 154, "TREATMENT", "2014-02-17", "2014-02-17", 161, 161, ""], [1599, "CDISCPILOT01", "SV", "01-708-1286", 12.0, "WEEK 24", 168, "TREATMENT", "2014-02-23", "2014-02-23", 167, 167, ""], [1600, "CDISCPILOT01", "SV", "01-708-1286", 13.0, "WEEK 26", 182, "TREATMENT", "2014-03-08", "2014-03-08", 180, 180, ""], [1601, "CDISCPILOT01", "SV", "01-708-1296", 1.0, "SCREENING 1", -7, "SCREENING", "2013-06-07", "2013-06-07", -7, -7, ""], [1602, "CDISCPILOT01", "SV", "01-708-1296", 2.0, "SCREENING 2", -1, "SCREENING", "2013-06-12", "2013-06-12", -2, -2, ""], [1603, "CDISCPILOT01", "SV", "01-708-1296", 3.0, "BASELINE", 1, "TREATMENT", "2013-06-14", "2013-06-14", 1, 1, ""], [1604, "CDISCPILOT01", "SV", "01-708-1296", 3.5, "AMBUL ECG PLACEMENT", 13, "TREATMENT", "2013-06-26", "2013-06-26", 13, 13, ""], [1605, "CDISCPILOT01", "SV", "01-708-1296", 4.0, "WEEK 2", 14, "TREATMENT", "2013-06-27", "2013-06-27", 14, 14, ""], [1606, "CDISCPILOT01", "SV", "01-708-1296", 5.0, "WEEK 4", 28, "TREATMENT", "2013-07-10", "2013-07-10", 27, 27, ""], [1607, "CDISCPILOT01", "SV", "01-708-1296", 6.0, "AMBUL ECG REMOVAL", 30, "TREATMENT", "2013-07-12", "2013-07-12", 29, 29, ""], [1608, "CDISCPILOT01", "SV", "01-708-1296", 7.0, "WEEK 6", 42, "TREATMENT", "2013-07-24", "2013-07-24", 41, 41, ""], [1609, "CDISCPILOT01", "SV", "01-708-1296", 8.0, "WEEK 8", 56, "TREATMENT", "2013-08-07", "2013-08-07", 55, 55, ""], [1610, "CDISCPILOT01", "SV", "01-708-1296", 8.1, "WEEK 10 (T)", 70, "TREATMENT", "2013-08-20", "2013-08-20", 68, 68, ""], [1611, "CDISCPILOT01", "SV", "01-708-1296", 9.0, "WEEK 12", 84, "TREATMENT", "2013-09-04", "2013-09-04", 83, 83, ""], [1612, "CDISCPILOT01", "SV", "01-708-1296", 9.1, "WEEK 14 (T)", 98, "TREATMENT", "2013-09-18", "2013-09-18", 97, 97, ""], [1613, "CDISCPILOT01", "SV", "01-708-1296", 10.0, "WEEK 16", 112, "TREATMENT", "2013-10-02", "2013-10-02", 111, 111, ""], [1614, "CDISCPILOT01", "SV", "01-708-1296", 10.1, "WEEK 18 (T)", 126, "TREATMENT", "2013-10-2