{
	"creationDateTime": "2023-08-11T09:37:52",
	"datasetJSONVersion": "1.0.0",
	"fileOID": "www.cdisc.org/StudyMSGv2/1/Define-XML_2.1.0.MH",
	"originator": "CDISC MSG Team",
	"clinicalData": {
		"studyOID": "cdisc.com/CDISCPILOT01",
		"metaDataVersionOID": "MDV.MSGv2.0.SDTMIG.3.3.SDTM.1.7",
		"itemGroupData": {
			"MH": {
				"records": 17,
				"name": "MH",
				"label": "Medical History",
				"items": [
					{
						"OID": "ITEMGROUPDATASEQ",
						"name": "ITEMGROUPDATASEQ",
						"label": "Record identifier",
						"type": "integer"
					},
					{
						"OID": "IT.MH.STUDYID",
						"name": "STUDYID",
						"label": "Study Identifier",
						"type": "string",
						"length": 12,
						"keySequence": 1
					},
					{
						"OID": "IT.MH.DOMAIN",
						"name": "DOMAIN",
						"label": "Domain Abbreviation",
						"type": "string",
						"length": 2
					},
					{
						"OID": "IT.MH.USUBJID",
						"name": "USUBJID",
						"label": "Unique Subject Identifier",
						"type": "string",
						"length": 8,
						"keySequence": 2
					},
					{
						"OID": "IT.MH.MHSEQ",
						"name": "MHSEQ",
						"label": "Sequence Number",
						"type": "integer",
						"length": 3
					},
					{
						"OID": "IT.MH.MHTERM",
						"name": "MHTERM",
						"label": "Reported Term for the Medical History",
						"type": "string",
						"length": 19,
						"keySequence": 3
					},
					{
						"OID": "IT.MH.MHSTAT",
						"name": "MHSTAT",
						"label": "Completion Status",
						"type": "string",
						"length": 200
					},
					{
						"OID": "IT.MH.MHEVDTYP",
						"name": "MHEVDTYP",
						"label": "Medical History Event Date Type",
						"type": "string",
						"length": 13
					},
					{
						"OID": "IT.MH.MHSTDTC",
						"name": "MHSTDTC",
						"label": "Start Date/Time of Medical History Event",
						"type": "string",
						"keySequence": 4
					},
					{
						"OID": "IT.MH.MHSTDY",
						"name": "MHSTDY",
						"label": "Study Day of Start of Observation",
						"type": "integer",
						"length": 8
					}
				],
				"itemData": [
					[
						1,
						"CDISCPILOT01",
						"MH",
						"CDISC001",
						1,
						"ALZHEIMER'S DISEASE",
						"",
						"SYMPTOM ONSET",
						"2004-05-28",
						-3108
					],
					[
						2,
						"CDISCPILOT01",
						"MH",
						"CDISC002",
						1,
						"ALZHEIMER'S DISEASE",
						"",
						"SYMPTOM ONSET",
						"2010-03-19",
						-972
					],
					[
						3,
						"CDISCPILOT01",
						"MH",
						"CDISC003",
						1,
						"ALZHEIMER'S DISEASE",
						"",
						"SYMPTOM ONSET",
						"2007-02-09",
						-2393
					],
					[
						4,
						"CDISCPILOT01",
						"MH",
						"CDISC004",
						1,
						"ALZHEIMER'S DISEASE",
						"",
						"SYMPTOM ONSET",
						"2010-11-05",
						-1068
					],
					[
						5,
						"CDISCPILOT01",
						"MH",
						"CDISC005",
						1,
						"ALZHEIMER'S DISEASE",
						"",
						"SYMPTOM ONSET",
						"2006-08-20",
						-2360
					],
					[
						6,
						"CDISCPILOT01",
						"MH",
						"CDISC006",
						1,
						"ALZHEIMER'S DISEASE",
						"",
						"SYMPTOM ONSET",
						"2008-06-17",
						-1736
					],
					[
						7,
						"CDISCPILOT01",
						"MH",
						"CDISC007",
						1,
						"ALZHEIMER'S DISEASE",
						"",
						"SYMPTOM ONSET",
						"2008-05-21",
						-1690
					],
					[
						8,
						"CDISCPILOT01",
						"MH",
						"CDISC008",
						1,
						"ALZHEIMER'S DISEASE",
						"",
						"SYMPTOM ONSET",
						"2012-11-11",
						-546
					],
					[
						9,
						"CDISCPILOT01",
						"MH",
						"CDISC009",
						1,
						"ALZHEIMER'S DISEASE",
						"",
						"SYMPTOM ONSET",
						"2008-09-02",
						-1511
					],
					[
						10,
						"CDISCPILOT01",
						"MH",
						"CDISC010",
						1,
						"ALZHEIMER'S DISEASE",
						"",
						"SYMPTOM ONSET",
						"2012-09-08",
						-378
					],
					[
						11,
						"CDISCPILOT01",
						"MH",
						"CDISC011",
						1,
						"ALZHEIMER'S DISEASE",
						"",
						"SYMPTOM ONSET",
						"2002-12-01",
						-3659
					],
					[
						12,
						"CDISCPILOT01",
						"MH",
						"CDISC012",
						1,
						"ALZHEIMER'S DISEASE",
						"",
						"SYMPTOM ONSET",
						"2009-03-16",
						-1632
					],
					[
						13,
						"CDISCPILOT01",
						"MH",
						"CDISC013",
						1,
						"ALZHEIMER'S DISEASE",
						"",
						"SYMPTOM ONSET",
						"2011-07-19",
						-734
					],
					[
						14,
						"CDISCPILOT01",
						"MH",
						"CDISC014",
						1,
						"ALZHEIMER'S DISEASE",
						"",
						"SYMPTOM ONSET",
						"2011-07-25",
						-618
					],
					[
						15,
						"CDISCPILOT01",
						"MH",
						"CDISC016",
						1,
						"ALZHEIMER'S DISEASE",
						"",
						"SYMPTOM ONSET",
						"2011-04-29",
						-705
					],
					[
						16,
						"CDISCPILOT01",
						"MH",
						"CDISC017",
						1,
						"ALZHEIMER'S DISEASE",
						"",
						"SYMPTOM ONSET",
						"2008-08-20",
						-1858
					],
					[
						17,
						"CDISCPILOT01",
						"MH",
						"CDISC018",
						1,
						"ALZHEIMER'S DISEASE",
						"",
						"SYMPTOM ONSET",
						"2010-05-03",
						-959
					]
				]
			}
		}
	}
}