{
	"creationDateTime": "2023-08-11T09:37:53",
	"datasetJSONVersion": "1.0.0",
	"fileOID": "www.cdisc.org/StudyMSGv2/1/Define-XML_2.1.0.SE",
	"originator": "CDISC MSG Team",
	"clinicalData": {
		"studyOID": "cdisc.com/CDISCPILOT01",
		"metaDataVersionOID": "MDV.MSGv2.0.SDTMIG.3.3.SDTM.1.7",
		"itemGroupData": {
			"SE": {
				"records": 43,
				"name": "SE",
				"label": "Subject Elements",
				"items": [
					{
						"OID": "ITEMGROUPDATASEQ",
						"name": "ITEMGROUPDATASEQ",
						"label": "Record identifier",
						"type": "integer"
					},
					{
						"OID": "IT.SE.STUDYID",
						"name": "STUDYID",
						"label": "Study Identifier",
						"type": "string",
						"length": 12,
						"keySequence": 1
					},
					{
						"OID": "IT.SE.DOMAIN",
						"name": "DOMAIN",
						"label": "Domain Abbreviation",
						"type": "string",
						"length": 2
					},
					{
						"OID": "IT.SE.USUBJID",
						"name": "USUBJID",
						"label": "Unique Subject Identifier",
						"type": "string",
						"length": 8,
						"keySequence": 2
					},
					{
						"OID": "IT.SE.SESEQ",
						"name": "SESEQ",
						"label": "Sequence Number",
						"type": "integer",
						"length": 3
					},
					{
						"OID": "IT.SE.ETCD",
						"name": "ETCD",
						"label": "Element Code",
						"type": "string",
						"length": 7,
						"keySequence": 4
					},
					{
						"OID": "IT.SE.ELEMENT",
						"name": "ELEMENT",
						"label": "Description of Element",
						"type": "string",
						"length": 26
					},
					{
						"OID": "IT.SE.EPOCH",
						"name": "EPOCH",
						"label": "Epoch",
						"type": "string",
						"length": 9
					},
					{
						"OID": "IT.SE.SESTDTC",
						"name": "SESTDTC",
						"label": "Start Date/Time of Element",
						"type": "string",
						"keySequence": 3
					},
					{
						"OID": "IT.SE.SEENDTC",
						"name": "SEENDTC",
						"label": "End Date/Time of Element",
						"type": "string"
					},
					{
						"OID": "IT.SE.SESTDY",
						"name": "SESTDY",
						"label": "Study Day of Start of Element",
						"type": "integer",
						"length": 8
					},
					{
						"OID": "IT.SE.SEENDY",
						"name": "SEENDY",
						"label": "Study Day of End of Element",
						"type": "integer",
						"length": 8
					},
					{
						"OID": "IT.SE.SEUPDES",
						"name": "SEUPDES",
						"label": "Description of Unplanned Element",
						"type": "string",
						"length": 200
					}
				],
				"itemData": [
					[
						1,
						"CDISCPILOT01",
						"SE",
						"CDISC001",
						1,
						"SCREEN",
						"Screening",
						"SCREENING",
						"2012-11-23",
						"2012-11-30",
						-7,
						1,
						""
					],
					[
						2,
						"CDISCPILOT01",
						"SE",
						"CDISC001",
						2,
						"LOW",
						"Zanomaline 54 mg",
						"TREATMENT",
						"2012-11-30",
						"2013-05-20",
						1,
						172,
						""
					],
					[
						3,
						"CDISCPILOT01",
						"SE",
						"CDISC002",
						1,
						"SCREEN",
						"Screening",
						"SCREENING",
						"2012-10-30",
						"2012-11-15",
						-16,
						1,
						""
					],
					[
						4,
						"CDISCPILOT01",
						"SE",
						"CDISC002",
						2,
						"LOW",
						"Zanomaline 54 mg",
						"TREATMENT",
						"2012-11-15",
						"2013-01-14",
						1,
						61,
						""
					],
					[
						5,
						"CDISCPILOT01",
						"SE",
						"CDISC003",
						1,
						"SCREEN",
						"Screening",
						"SCREENING",
						"2013-08-20",
						"2013-08-29",
						-9,
						1,
						""
					],
					[
						6,
						"CDISCPILOT01",
						"SE",
						"CDISC003",
						2,
						"TITRATE",
						"Zanomaline 54 mg Titration",
						"TREATMENT",
						"2013-08-29",
						"2013-09-15",
						1,
						18,
						""
					],
					[
						7,
						"CDISCPILOT01",
						"SE",
						"CDISC003",
						3,
						"HIGH",
						"Zanomaline 81 mg",
						"TREATMENT",
						"2013-09-15",
						"2014-02-13",
						18,
						169,
						""
					],
					[
						8,
						"CDISCPILOT01",
						"SE",
						"CDISC004",
						1,
						"SCREEN",
						"Screening",
						"SCREENING",
						"2013-10-01",
						"2013-10-08",
						-7,
						1,
						""
					],
					[
						9,
						"CDISCPILOT01",
						"SE",
						"CDISC004",
						2,
						"PLACEBO",
						"Placebo",
						"TREATMENT",
						"2013-10-08",
						"2014-03-18",
						1,
						162,
						""
					],
					[
						10,
						"CDISCPILOT01",
						"SE",
						"CDISC005",
						1,
						"SCREEN",
						"Screening",
						"SCREENING",
						"2013-01-22",
						"2013-02-04",
						-13,
						1,
						""
					],
					[
						11,
						"CDISCPILOT01",
						"SE",
						"CDISC005",
						2,
						"TITRATE",
						"Zanomaline 54 mg Titration",
						"TREATMENT",
						"2013-02-04",
						"2013-02-19",
						1,
						16,
						""
					],
					[
						12,
						"CDISCPILOT01",
						"SE",
						"CDISC005",
						3,
						"HIGH",
						"Zanomaline 81 mg",
						"TREATMENT",
						"2013-02-19",
						"2013-07-30",
						16,
						177,
						""
					],
					[
						13,
						"CDISCPILOT01",
						"SE",
						"CDISC005",
						4,
						"TITRATE",
						"Zanomaline 54 mg Titration",
						"TREATMENT",
						"2013-07-30",
						"2013-08-06",
						177,
						184,
						""
					],
					[
						14,
						"CDISCPILOT01",
						"SE",
						"CDISC006",
						1,
						"SCREEN",
						"Screening",
						"SCREENING",
						"2013-02-25",
						"2013-03-19",
						-22,
						1,
						""
					],
					[
						15,
						"CDISCPILOT01",
						"SE",
						"CDISC006",
						2,
						"LOW",
						"Zanomaline 54 mg",
						"TREATMENT",
						"2013-03-19",
						"2013-04-30",
						1,
						43,
						""
					],
					[
						16,
						"CDISCPILOT01",
						"SE",
						"CDISC007",
						1,
						"SCREEN",
						"Screening",
						"SCREENING",
						"2012-12-31",
						"2013-01-05",
						-5,
						1,
						""
					],
					[
						17,
						"CDISCPILOT01",
						"SE",
						"CDISC007",
						2,
						"TITRATE",
						"Zanomaline 54 mg Titration",
						"TREATMENT",
						"2013-01-05",
						"2013-01-18",
						1,
						14,
						""
					],
					[
						18,
						"CDISCPILOT01",
						"SE",
						"CDISC007",
						3,
						"HIGH",
						"Zanomaline 81 mg",
						"TREATMENT",
						"2013-01-18",
						"2013-06-20",
						14,
						167,
						""
					],
					[
						19,
						"CDISCPILOT01",
						"SE",
						"CDISC008",
						1,
						"SCREEN",
						"Screening",
						"SCREENING",
						"2014-05-01",
						"2014-05-11",
						-10,
						1,
						""
					],
					[
						20,
						"CDISCPILOT01",
						"SE",
						"CDISC008",
						2,
						"PLACEBO",
						"Placebo",
						"TREATMENT",
						"2014-05-11",
						"2014-10-30",
						1,
						173,
						""
					],
					[
						21,
						"CDISCPILOT01",
						"SE",
						"CDISC009",
						1,
						"SCREEN",
						"Screening",
						"SCREENING",
						"2012-10-06",
						"2012-10-22",
						-16,
						1,
						""
					],
					[
						22,
						"CDISCPILOT01",
						"SE",
						"CDISC009",
						2,
						"PLACEBO",
						"Placebo",
						"TREATMENT",
						"2012-10-22",
						"2013-04-28",
						1,
						189,
						""
					],
					[
						23,
						"CDISCPILOT01",
						"SE",
						"CDISC010",
						1,
						"SCREEN",
						"Screening",
						"SCREENING",
						"2013-09-08",
						"2013-09-21",
						-13,
						1,
						""
					],
					[
						24,
						"CDISCPILOT01",
						"SE",
						"CDISC010",
						2,
						"TITRATE",
						"Zanomaline 54 mg Titration",
						"TREATMENT",
						"2013-09-21",
						"2013-09-26",
						1,
						6,
						""
					],
					[
						25,
						"CDISCPILOT01",
						"SE",
						"CDISC011",
						1,
						"SCREEN",
						"Screening",
						"SCREENING",
						"2012-11-21",
						"2012-12-07",
						-16,
						1,
						""
					],
					[
						26,
						"CDISCPILOT01",
						"SE",
						"CDISC011",
						2,
						"TITRATE",
						"Zanomaline 54 mg Titration",
						"TREATMENT",
						"2012-12-07",
						"2012-12-21",
						1,
						15,
						""
					],
					[
						27,
						"CDISCPILOT01",
						"SE",
						"CDISC011",
						3,
						"HIGH",
						"Zanomaline 81 mg",
						"TREATMENT",
						"2012-12-21",
						"2013-05-22",
						15,
						167,
						""
					],
					[
						28,
						"CDISCPILOT01",
						"SE",
						"CDISC011",
						4,
						"TITRATE",
						"Zanomaline 54 mg Titration",
						"TREATMENT",
						"2013-05-22",
						"2013-07-05",
						167,
						211,
						""
					],
					[
						29,
						"CDISCPILOT01",
						"SE",
						"CDISC012",
						1,
						"SCREEN",
						"Screening",
						"SCREENING",
						"2013-08-24",
						"2013-09-03",
						-10,
						1,
						""
					],
					[
						30,
						"CDISCPILOT01",
						"SE",
						"CDISC012",
						2,
						"PLACEBO",
						"Placebo",
						"TREATMENT",
						"2013-09-03",
						"2014-01-28",
						1,
						148,
						""
					],
					[
						31,
						"CDISCPILOT01",
						"SE",
						"CDISC013",
						1,
						"SCREEN",
						"Screening",
						"SCREENING",
						"2013-07-09",
						"2013-07-22",
						-13,
						1,
						""
					],
					[
						32,
						"CDISCPILOT01",
						"SE",
						"CDISC013",
						2,
						"PLACEBO",
						"Placebo",
						"TREATMENT",
						"2013-07-22",
						"2013-08-02",
						1,
						12,
						""
					],
					[
						33,
						"CDISCPILOT01",
						"SE",
						"CDISC013",
						3,
						"UNPLAN",
						"Placebo",
						"TREATMENT",
						"2013-07-22",
						"2013-08-02",
						12,
						14,
						""
					],
					[
						34,
						"CDISCPILOT01",
						"SE",
						"CDISC014",
						1,
						"SCREEN",
						"Screening",
						"SCREENING",
						"2013-03-20",
						"2013-04-03",
						-14,
						1,
						""
					],
					[
						35,
						"CDISCPILOT01",
						"SE",
						"CDISC014",
						2,
						"TITRATE",
						"Zanomaline 54 mg Titration",
						"TREATMENT",
						"2013-04-03",
						"2013-04-17",
						1,
						15,
						""
					],
					[
						36,
						"CDISCPILOT01",
						"SE",
						"CDISC014",
						3,
						"HIGH",
						"Zanomaline 81 mg",
						"TREATMENT",
						"2013-04-17",
						"2013-09-18",
						15,
						169,
						""
					],
					[
						37,
						"CDISCPILOT01",
						"SE",
						"CDISC015",
						1,
						"SCREEN",
						"Screening",
						"SCREENING",
						"2014-03-17",
						"2014-03-17",
						null,
						null,
						""
					],
					[
						38,
						"CDISCPILOT01",
						"SE",
						"CDISC016",
						1,
						"SCREEN",
						"Screening",
						"SCREENING",
						"2013-03-30",
						"2013-04-03",
						-4,
						1,
						""
					],
					[
						39,
						"CDISCPILOT01",
						"SE",
						"CDISC016",
						2,
						"LOW",
						"Zanomaline 54 mg",
						"TREATMENT",
						"2013-04-03",
						"2013-09-22",
						1,
						173,
						""
					],
					[
						40,
						"CDISCPILOT01",
						"SE",
						"CDISC017",
						1,
						"SCREEN",
						"Screening",
						"SCREENING",
						"2013-08-21",
						"2013-09-21",
						-31,
						1,
						""
					],
					[
						41,
						"CDISCPILOT01",
						"SE",
						"CDISC017",
						2,
						"LOW",
						"Zanomaline 54 mg",
						"TREATMENT",
						"2013-09-21",
						"2014-03-08",
						1,
						169,
						""
					],
					[
						42,
						"CDISCPILOT01",
						"SE",
						"CDISC018",
						1,
						"SCREEN",
						"Screening",
						"SCREENING",
						"2012-12-13",
						"2012-12-17",
						-4,
						1,
						""
					],
					[
						43,
						"CDISCPILOT01",
						"SE",
						"CDISC018",
						2,
						"TITRATE",
						"Zanomaline 54 mg Titration",
						"TREATMENT",
						"2012-12-17",
						"2012-12-31",
						1,
						15,
						""
					],
					[
						44,
						"CDISCPILOT01",
						"SE",
						"CDISC018",
						3,
						"HIGH",
						"Zanomaline 81 mg",
						"TREATMENT",
						"2012-12-31",
						"2013-06-03",
						15,
						169,
						""
					]
				]
			}
		}
	}
}