{
"datasets": [{
"filename": "ae.xpt",
"label": "Adverse Events",
"domain": "AE",
"variables": [
{
"name": "STUDYID",
"label": "Study Identifier",
"type": "Char",
"length": 12
 },
{
"name": "DOMAIN",
"label": "Domain Abbreviation",
"type": "Char",
"length": 2
 },
{
"name": "USUBJID",
"label": "Unique Subject Identifier",
"type": "Char",
"length": 11
 },
{
"name": "AESEQ",
"label": "Sequence Number",
"type": "Num",
"length": 8
 },
{
"name": "AESPID",
"label": "Sponsor-Defined Identifier",
"type": "Char",
"length": 3
 },
{
"name": "AETERM",
"label": "Reported Term for the Adverse Event",
"type": "Char",
"length": 200
 },
{
"name": "AELLT",
"label": "Lowest Level Term",
"type": "Char",
"length": 100
 },
{
"name": "AELLTCD",
"label": "Lowest Level Term Code",
"type": "Num",
"length": 8
 },
{
"name": "AEDECOD",
"label": "Dictionary-Derived Term",
"type": "Char",
"length": 200
 },
{
"name": "AEPTCD",
"label": "Preferred Term Code",
"type": "Num",
"length": 8
 },
{
"name": "AEHLT",
"label": "High Level Term",
"type": "Char",
"length": 100
 },
{
"name": "AEHLTCD",
"label": "High Level Term Code",
"type": "Num",
"length": 8
 },
{
"name": "AEHLGT",
"label": "High Level Group Term",
"type": "Char",
"length": 100
 },
{
"name": "AEHLGTCD",
"label": "High Level Group Term Code",
"type": "Num",
"length": 8
 },
{
"name": "AEBODSYS",
"label": "Body System or Organ Class",
"type": "Char",
"length": 67
 },
{
"name": "AEBDSYCD",
"label": "Body System or Organ Class Code",
"type": "Num",
"length": 8
 },
{
"name": "AESOC",
"label": "Primary System Organ Class",
"type": "Char",
"length": 100
 },
{
"name": "AESOCCD",
"label": "Primary System Organ Class Code",
"type": "Num",
"length": 8
 },
{
"name": "AESEV",
"label": "Severity/Intensity",
"type": "Char",
"length": 8
 },
{
"name": "AESER",
"label": "Serious Event",
"type": "Char",
"length": 1
 },
{
"name": "AEACN",
"label": "Action Taken with Study Treatment",
"type": "Char",
"length": 30
 },
{
"name": "AEREL",
"label": "Causality",
"type": "Char",
"length": 8
 },
{
"name": "AEOUT",
"label": "Outcome of Adverse Event",
"type": "Char",
"length": 200
 },
{
"name": "AESCAN",
"label": "Involves Cancer",
"type": "Char",
"length": 1
 },
{
"name": "AESCONG",
"label": "Congenital Anomaly or Birth Defect",
"type": "Char",
"length": 1
 },
{
"name": "AESDISAB",
"label": "Persist or Signif Disability/Incapacity",
"type": "Char",
"length": 1
 },
{
"name": "AESDTH",
"label": "Results in Death",
"type": "Char",
"length": 1
 },
{
"name": "AESHOSP",
"label": "Requires or Prolongs Hospitalization",
"type": "Char",
"length": 1
 },
{
"name": "AESLIFE",
"label": "Is Life Threatening",
"type": "Char",
"length": 1
 },
{
"name": "AESOD",
"label": "Occurred with Overdose",
"type": "Char",
"length": 1
 },
{
"name": "EPOCH",
"label": "Epoch",
"type": "Char",
"length": 9
 },
{
"name": "AEDTC",
"label": "Date/Time of Collection",
"type": "Char",
"length": 10
 },
{
"name": "AESTDTC",
"label": "Start Date/Time of Adverse Event",
"type": "Char",
"length": 10
 },
{
"name": "AEENDTC",
"label": "End Date/Time of Adverse Event",
"type": "Char",
"length": 10
 },
{
"name": "AEDY",
"label": "Study Day of Visit/Collection/Exam",
"type": "Num",
"length": 8
 },
{
"name": "AESTDY",
"label": "Study Day of Start of Adverse Event",
"type": "Num",
"length": 8
 },
{
"name": "AEENDY",
"label": "Study Day of End of Adverse Event",
"type": "Num",
"length": 8
 }
 ],
"records": {
"STUDYID": [
"CDISCPILOT01",
"CDISCPILOT01",
"CDISCPILOT01",
"CDISCPILOT01",
"CDISCPILOT01",
"CDISCPILOT01",
"CDISCPILOT01",
"CDISCPILOT01",
"CDISCPILOT01",
"CDISCPILOT01",
"CDISCPILOT01",
"CDISCPILOT01",
"CDISCPILOT01",
"CDISCPILOT01",
"CDISCPILOT01",
"CDISCPILOT01",
"CDISCPILOT01",
"CDISCPILOT01",
"CDISCPILOT01",
"CDISCPILOT01",
"CDISCPILOT01",
"CDISCPILOT01",
"CDISCPILOT01",
"CDISCPILOT01",
"CDISCPILOT01",
"CDISCPILOT01",
"CDISCPILOT01",
"CDISCPILOT01",
"CDISCPILOT01",
"CDISCPILOT01",
"CDISCPILOT01",
"CDISCPILOT01",
"CDISCPILOT01",
"CDISCPILOT01",
"CDISCPILOT01",
"CDISCPILOT01",
"CDISCPILOT01",
"CDISCPILOT01",
"CDISCPILOT01",
"CDISCPILOT01",
"CDISCPILOT01",
"CDISCPILOT01",
"CDISCPILOT01",
"CDISCPILOT01",
"CDISCPILOT01",
"CDISCPILOT01",
"CDISCPILOT01",
"CDISCPILOT01",
"CDISCPILOT01",
"CDISCPILOT01",
"CDISCPILOT01",
"CDISCPILOT01",
"CDISCPILOT01",
"CDISCPILOT01",
"CDISCPILOT01",
"CDISCPILOT01",
"CDISCPILOT01",
"CDISCPILOT01",
"CDISCPILOT01",
"CDISCPILOT01",
"CDISCPILOT01",
"CDISCPILOT01",
"CDISCPILOT01",
"CDISCPILOT01",
"CDISCPILOT01",
"CDISCPILOT01",
"CDISCPILOT01",
"CDISCPILOT01",
"CDISCPILOT01",
"CDISCPILOT01",
"CDISCPILOT01",
"CDISCPILOT01",
"CDISCPILOT01",
"CDISCPILOT01",
"CDISCPILOT01",
"CDISCPILOT01",
"CDISCPILOT01",
"CDISCPILOT01",
"CDISCPILOT01",
"CDISCPILOT01",
"CDISCPILOT01",
"CDISCPILOT01",
"CDISCPILOT01",
"CDISCPILOT01",
"CDISCPILOT01",
"CDISCPILOT01",
"CDISCPILOT01",
"CDISCPILOT01",
"CDISCPILOT01",
"CDISCPILOT01",
"CDISCPILOT01",
"CDISCPILOT01",
"CDISCPILOT01",
"CDISCPILOT01",
"CDISCPILOT01",
"CDISCPILOT01",
"CDISCPILOT01",
"CDISCPILOT01",
"CDISCPILOT01",
"CDISCPILOT01",
"CDISCPILOT01",
"CDISCPILOT01",
"CDISCPILOT01",
"CDISCPILOT01",
"CDISCPILOT01",
"CDISCPILOT01",
"CDISCPILOT01",
"CDISCPILOT01",
"CDISCPILOT01",
"CDISCPILOT01",
"CDISCPILOT01",
"CDISCPILOT01",
"CDISCPILOT01",
"CDISCPILOT01",
"CDISCPILOT01",
"CDISCPILOT01",
"CDISCPILOT01",
"CDISCPILOT01",
"CDISCPILOT01",
"CDISCPILOT01",
"CDISCPILOT01",
"CDISCPILOT01",
"CDISCPILOT01",
"CDISCPILOT01",
"CDISCPILOT01",
"CDISCPILOT01",
"CDISCPILOT01",
"CDISCPILOT01",
"CDISCPILOT01",
"CDISCPILOT01",
"CDISCPILOT01",
"CDISCPILOT01",
"CDISCPILOT01",
"CDISCPILOT01",
"CDISCPILOT01",
"CDISCPILOT01",
"CDISCPILOT01",
"CDISCPILOT01",
"CDISCPILOT01",
"CDISCPILOT01",
"CDISCPILOT01",
"CDISCPILOT01",
"CDISCPILOT01",
"CDISCPILOT01",
"CDISCPILOT01",
"CDISCPILOT01",
"CDISCPILOT01",
"CDISCPILOT01",
"CDISCPILOT01",
"CDISCPILOT01",
"CDISCPILOT01",
"CDISCPILOT01",
"CDISCPILOT01",
"CDISCPILOT01",
"CDISCPILOT01",
"CDISCPILOT01",
"CDISCPILOT01",
"CDISCPILOT01",
"CDISCPILOT01",
"CDISCPILOT01",
"CDISCPILOT01",
"CDISCPILOT01",
"CDISCPILOT01",
"CDISCPILOT01",
"CDISCPILOT01",
"CDISCPILOT01",
"CDISCPILOT01",
"CDISCPILOT01",
"CDISCPILOT01",
"CDISCPILOT01",
"CDISCPILOT01",
"CDISCPILOT01",
"CDISCPILOT01",
"CDISCPILOT01",
"CDISCPILOT01",
"CDISCPILOT01",
"CDISCPILOT01",
"CDISCPILOT01",
"CDISCPILOT01",
"CDISCPILOT01",
"CDISCPILOT01",
"CDISCPILOT01",
"CDISCPILOT01",
"CDISCPILOT01",
"CDISCPILOT01",
"CDISCPILOT01",
"CDISCPILOT01",
"CDISCPILOT01",
"CDISCPILOT01",
"CDISCPILOT01",
"CDISCPILOT01",
"CDISCPILOT01",
"CDISCPILOT01",
"CDISCPILOT01",
"CDISCPILOT01",
"CDISCPILOT01",
"CDISCPILOT01",
"CDISCPILOT01",
"CDISCPILOT01",
"CDISCPILOT01",
"CDISCPILOT01",
"CDISCPILOT01",
"CDISCPILOT01",
"CDISCPILOT01",
"CDISCPILOT01",
"CDISCPILOT01",
"CDISCPILOT01",
"CDISCPILOT01",
"CDISCPILOT01",
"CDISCPILOT01",
"CDISCPILOT01",
"CDISCPILOT01",
"CDISCPILOT01",
"CDISCPILOT01",
"CDISCPILOT01",
"CDISCPILOT01",
"CDISCPILOT01",
"CDISCPILOT01",
"CDISCPILOT01",
"CDISCPILOT01",
"CDISCPILOT01",
"CDISCPILOT01",
"CDISCPILOT01",
"CDISCPILOT01",
"CDISCPILOT01",
"CDISCPILOT01",
"CDISCPILOT01",
"CDISCPILOT01",
"CDISCPILOT01",
"CDISCPILOT01",
"CDISCPILOT01",
"CDISCPILOT01",
"CDISCPILOT01",
"CDISCPILOT01",
"CDISCPILOT01",
"CDISCPILOT01",
"CDISCPILOT01",
"CDISCPILOT01",
"CDISCPILOT01",
"CDISCPILOT01",
"CDISCPILOT01",
"CDISCPILOT01",
"CDISCPILOT01",
"CDISCPILOT01",
"CDISCPILOT01",
"CDISCPILOT01",
"CDISCPILOT01",
"CDISCPILOT01",
"CDISCPILOT01",
"CDISCPILOT01",
"CDISCPILOT01",
"CDISCPILOT01",
"CDISCPILOT01",
"CDISCPILOT01",
"CDISCPILOT01",
"CDISCPILOT01",
"CDISCPILOT01",
"CDISCPILOT01",
"CDISCPILOT01",
"CDISCPILOT01",
"CDISCPILOT01",
"CDISCPILOT01",
"CDISCPILOT01",
"CDISCPILOT01",
"CDISCPILOT01",
"CDISCPILOT01",
"CDISCPILOT01",
"CDISCPILOT01",
"CDISCPILOT01",
"CDISCPILOT01",
"CDISCPILOT01",
"CDISCPILOT01",
"CDISCPILOT01",
"CDISCPILOT01",
"CDISCPILOT01",
"CDISCPILOT01",
"CDISCPILOT01",
"CDISCPILOT01",
"CDISCPILOT01",
"CDISCPILOT01",
"CDISCPILOT01",
"CDISCPILOT01",
"CDISCPILOT01",
"CDISCPILOT01",
"CDISCPILOT01",
"CDISCPILOT01",
"CDISCPILOT01",
"CDISCPILOT01",
"CDISCPILOT01",
"CDISCPILOT01",
"CDISCPILOT01",
"CDISCPILOT01",
"CDISCPILOT01",
"CDISCPILOT01",
"CDISCPILOT01",
"CDISCPILOT01",
"CDISCPILOT01",
"CDISCPILOT01",
"CDISCPILOT01",
"CDISCPILOT01",
"CDISCPILOT01",
"CDISCPILOT01",
"CDISCPILOT01",
"CDISCPILOT01",
"CDISCPILOT01",
"CDISCPILOT01",
"CDISCPILOT01",
"CDISCPILOT01",
"CDISCPILOT01",
"CDISCPILOT01",
"CDISCPILOT01",
"CDISCPILOT01",
"CDISCPILOT01",
"CDISCPILOT01",
"CDISCPILOT01",
"CDISCPILOT01",
"CDISCPILOT01",
"CDISCPILOT01",
"CDISCPILOT01",
"CDISCPILOT01",
"CDISCPILOT01",
"CDISCPILOT01",
"CDISCPILOT01",
"CDISCPILOT01",
"CDISCPILOT01",
"CDISCPILOT01",
"CDISCPILOT01",
"CDISCPILOT01",
"CDISCPILOT01",
"CDISCPILOT01",
"CDISCPILOT01",
"CDISCPILOT01",
"CDISCPILOT01",
"CDISCPILOT01",
"CDISCPILOT01",
"CDISCPILOT01",
"CDISCPILOT01",
"CDISCPILOT01",
"CDISCPILOT01",
"CDISCPILOT01",
"CDISCPILOT01",
"CDISCPILOT01",
"CDISCPILOT01",
"CDISCPILOT01",
"CDISCPILOT01",
"CDISCPILOT01",
"CDISCPILOT01",
"CDISCPILOT01",
"CDISCPILOT01",
"CDISCPILOT01",
"CDISCPILOT01",
"CDISCPILOT01",
"CDISCPILOT01",
"CDISCPILOT01",
"CDISCPILOT01",
"CDISCPILOT01",
"CDISCPILOT01",
"CDISCPILOT01",
"CDISCPILOT01",
"CDISCPILOT01",
"CDISCPILOT01",
"CDISCPILOT01",
"CDISCPILOT01",
"CDISCPILOT01",
"CDISCPILOT01",
"CDISCPILOT01",
"CDISCPILOT01",
"CDISCPILOT01",
"CDISCPILOT01",
"CDISCPILOT01",
"CDISCPILOT01",
"CDISCPILOT01",
"CDISCPILOT01",
"CDISCPILOT01",
"CDISCPILOT01",
"CDISCPILOT01",
"CDISCPILOT01",
"CDISCPILOT01",
"CDISCPILOT01",
"CDISCPILOT01",
"CDISCPILOT01",
"CDISCPILOT01",
"CDISCPILOT01",
"CDISCPILOT01",
"CDISCPILOT01",
"CDISCPILOT01",
"CDISCPILOT01",
"CDISCPILOT01",
"CDISCPILOT01",
"CDISCPILOT01",
"CDISCPILOT01",
"CDISCPILOT01",
"CDISCPILOT01",
"CDISCPILOT01",
"CDISCPILOT01",
"CDISCPILOT01",
"CDISCPILOT01",
"CDISCPILOT01",
"CDISCPILOT01",
"CDISCPILOT01",
"CDISCPILOT01",
"CDISCPILOT01",
"CDISCPILOT01",
"CDISCPILOT01",
"CDISCPILOT01",
"CDISCPILOT01",
"CDISCPILOT01",
"CDISCPILOT01",
"CDISCPILOT01",
"CDISCPILOT01",
"CDISCPILOT01",
"CDISCPILOT01",
"CDISCPILOT01",
"CDISCPILOT01",
"CDISCPILOT01",
"CDISCPILOT01",
"CDISCPILOT01",
"CDISCPILOT01",
"CDISCPILOT01",
"CDISCPILOT01",
"CDISCPILOT01",
"CDISCPILOT01",
"CDISCPILOT01",
"CDISCPILOT01",
"CDISCPILOT01",
"CDISCPILOT01",
"CDISCPILOT01",
"CDISCPILOT01",
"CDISCPILOT01",
"CDISCPILOT01",
"CDISCPILOT01",
"CDISCPILOT01",
"CDISCPILOT01",
"CDISCPILOT01",
"CDISCPILOT01",
"CDISCPILOT01",
"CDISCPILOT01",
"CDISCPILOT01",
"CDISCPILOT01",
"CDISCPILOT01",
"CDISCPILOT01",
"CDISCPILOT01",
"CDISCPILOT01",
"CDISCPILOT01",
"CDISCPILOT01",
"CDISCPILOT01",
"CDISCPILOT01",
"CDISCPILOT01",
"CDISCPILOT01",
"CDISCPILOT01",
"CDISCPILOT01",
"CDISCPILOT01",
"CDISCPILOT01",
"CDISCPILOT01",
"CDISCPILOT01",
"CDISCPILOT01",
"CDISCPILOT01",
"CDISCPILOT01",
"CDISCPILOT01",
"CDISCPILOT01",
"CDISCPILOT01",
"CDISCPILOT01",
"CDISCPILOT01",
"CDISCPILOT01",
"CDISCPILOT01",
"CDISCPILOT01",
"CDISCPILOT01",
"CDISCPILOT01",
"CDISCPILOT01",
"CDISCPILOT01",
"CDISCPILOT01",
"CDISCPILOT01",
"CDISCPILOT01",
"CDISCPILOT01",
"CDISCPILOT01",
"CDISCPILOT01",
"CDISCPILOT01",
"CDISCPILOT01",
"CDISCPILOT01",
"CDISCPILOT01",
"CDISCPILOT01",
"CDISCPILOT01",
"CDISCPILOT01",
"CDISCPILOT01",
"CDISCPILOT01",
"CDISCPILOT01",
"CDISCPILOT01",
"CDISCPILOT01",
"CDISCPILOT01",
"CDISCPILOT01",
"CDISCPILOT01",
"CDISCPILOT01",
"CDISCPILOT01",
"CDISCPILOT01",
"CDISCPILOT01",
"CDISCPILOT01",
"CDISCPILOT01",
"CDISCPILOT01",
"CDISCPILOT01",
"CDISCPILOT01",
"CDISCPILOT01",
"CDISCPILOT01",
"CDISCPILOT01",
"CDISCPILOT01",
"CDISCPILOT01",
"CDISCPILOT01",
"CDISCPILOT01",
"CDISCPILOT01",
"CDISCPILOT01",
"CDISCPILOT01",
"CDISCPILOT01",
"CDISCPILOT01",
"CDISCPILOT01",
"CDISCPILOT01",
"CDISCPILOT01",
"CDISCPILOT01",
"CDISCPILOT01",
"CDISCPILOT01",
"CDISCPILOT01",
"CDISCPILOT01",
"CDISCPILOT01",
"CDISCPILOT01",
"CDISCPILOT01",
"CDISCPILOT01",
"CDISCPILOT01",
"CDISCPILOT01",
"CDISCPILOT01",
"CDISCPILOT01",
"CDISCPILOT01",
"CDISCPILOT01",
"CDISCPILOT01",
"CDISCPILOT01",
"CDISCPILOT01",
"CDISCPILOT01",
"CDISCPILOT01",
"CDISCPILOT01",
"CDISCPILOT01",
"CDISCPILOT01",
"CDISCPILOT01",
"CDISCPILOT01",
"CDISCPILOT01",
"CDISCPILOT01",
"CDISCPILOT01",
"CDISCPILOT01",
"CDISCPILOT01",
"CDISCPILOT01",
"CDISCPILOT01",
"CDISCPILOT01",
"CDISCPILOT01",
"CDISCPILOT01",
"CDISCPILOT01",
"CDISCPILOT01",
"CDISCPILOT01",
"CDISCPILOT01",
"CDISCPILOT01",
"CDISCPILOT01",
"CDISCPILOT01",
"CDISCPILOT01",
"CDISCPILOT01",
"CDISCPILOT01",
"CDISCPILOT01",
"CDISCPILOT01",
"CDISCPILOT01",
"CDISCPILOT01",
"CDISCPILOT01",
"CDISCPILOT01",
"CDISCPILOT01",
"CDISCPILOT01",
"CDISCPILOT01",
"CDISCPILOT01",
"CDISCPILOT01",
"CDISCPILOT01",
"CDISCPILOT01",
"CDISCPILOT01",
"CDISCPILOT01",
"CDISCPILOT01",
"CDISCPILOT01",
"CDISCPILOT01",
"CDISCPILOT01",
"CDISCPILOT01",
"CDISCPILOT01",
"CDISCPILOT01",
"CDISCPILOT01",
"CDISCPILOT01",
"CDISCPILOT01",
"CDISCPILOT01",
"CDISCPILOT01",
"CDISCPILOT01",
"CDISCPILOT01",
"CDISCPILOT01",
"CDISCPILOT01",
"CDISCPILOT01",
"CDISCPILOT01",
"CDISCPILOT01",
"CDISCPILOT01",
"CDISCPILOT01",
"CDISCPILOT01",
"CDISCPILOT01",
"CDISCPILOT01",
"CDISCPILOT01",
"CDISCPILOT01",
"CDISCPILOT01",
"CDISCPILOT01",
"CDISCPILOT01",
"CDISCPILOT01",
"CDISCPILOT01",
"CDISCPILOT01",
"CDISCPILOT01",
"CDISCPILOT01",
"CDISCPILOT01",
"CDISCPILOT01",
"CDISCPILOT01",
"CDISCPILOT01",
"CDISCPILOT01",
"CDISCPILOT01",
"CDISCPILOT01",
"CDISCPILOT01",
"CDISCPILOT01",
"CDISCPILOT01",
"CDISCPILOT01",
"CDISCPILOT01",
"CDISCPILOT01",
"CDISCPILOT01",
"CDISCPILOT01",
"CDISCPILOT01",
"CDISCPILOT01",
"CDISCPILOT01",
"CDISCPILOT01",
"CDISCPILOT01",
"CDISCPILOT01",
"CDISCPILOT01",
"CDISCPILOT01",
"CDISCPILOT01",
"CDISCPILOT01",
"CDISCPILOT01",
"CDISCPILOT01",
"CDISCPILOT01",
"CDISCPILOT01",
"CDISCPILOT01",
"CDISCPILOT01",
"CDISCPILOT01",
"CDISCPILOT01",
"CDISCPILOT01",
"CDISCPILOT01",
"CDISCPILOT01",
"CDISCPILOT01",
"CDISCPILOT01",
"CDISCPILOT01",
"CDISCPILOT01",
"CDISCPILOT01",
"CDISCPILOT01",
"CDISCPILOT01",
"CDISCPILOT01",
"CDISCPILOT01",
"CDISCPILOT01",
"CDISCPILOT01",
"CDISCPILOT01",
"CDISCPILOT01",
"CDISCPILOT01",
"CDISCPILOT01",
"CDISCPILOT01",
"CDISCPILOT01",
"CDISCPILOT01",
"CDISCPILOT01",
"CDISCPILOT01",
"CDISCPILOT01",
"CDISCPILOT01",
"CDISCPILOT01",
"CDISCPILOT01",
"CDISCPILOT01",
"CDISCPILOT01",
"CDISCPILOT01",
"CDISCPILOT01",
"CDISCPILOT01",
"CDISCPILOT01",
"CDISCPILOT01",
"CDISCPILOT01",
"CDISCPILOT01",
"CDISCPILOT01",
"CDISCPILOT01",
"CDISCPILOT01",
"CDISCPILOT01",
"CDISCPILOT01",
"CDISCPILOT01",
"CDISCPILOT01",
"CDISCPILOT01",
"CDISCPILOT01",
"CDISCPILOT01",
"CDISCPILOT01",
"CDISCPILOT01",
"CDISCPILOT01",
"CDISCPILOT01",
"CDISCPILOT01",
"CDISCPILOT01",
"CDISCPILOT01",
"CDISCPILOT01",
"CDISCPILOT01",
"CDISCPILOT01",
"CDISCPILOT01",
"CDISCPILOT01",
"CDISCPILOT01",
"CDISCPILOT01",
"CDISCPILOT01",
"CDISCPILOT01",
"CDISCPILOT01",
"CDISCPILOT01",
"CDISCPILOT01",
"CDISCPILOT01",
"CDISCPILOT01",
"CDISCPILOT01",
"CDISCPILOT01",
"CDISCPILOT01",
"CDISCPILOT01",
"CDISCPILOT01",
"CDISCPILOT01",
"CDISCPILOT01",
"CDISCPILOT01",
"CDISCPILOT01",
"CDISCPILOT01",
"CDISCPILOT01",
"CDISCPILOT01",
"CDISCPILOT01",
"CDISCPILOT01",
"CDISCPILOT01",
"CDISCPILOT01",
"CDISCPILOT01",
"CDISCPILOT01",
"CDISCPILOT01",
"CDISCPILOT01",
"CDISCPILOT01",
"CDISCPILOT01",
"CDISCPILOT01",
"CDISCPILOT01",
"CDISCPILOT01",
"CDISCPILOT01",
"CDISCPILOT01",
"CDISCPILOT01",
"CDISCPILOT01",
"CDISCPILOT01",
"CDISCPILOT01",
"CDISCPILOT01",
"CDISCPILOT01",
"CDISCPILOT01",
"CDISCPILOT01",
"CDISCPILOT01",
"CDISCPILOT01",
"CDISCPILOT01",
"CDISCPILOT01",
"CDISCPILOT01",
"CDISCPILOT01",
"CDISCPILOT01",
"CDISCPILOT01",
"CDISCPILOT01",
"CDISCPILOT01",
"CDISCPILOT01",
"CDISCPILOT01",
"CDISCPILOT01",
"CDISCPILOT01",
"CDISCPILOT01",
"CDISCPILOT01",
"CDISCPILOT01",
"CDISCPILOT01",
"CDISCPILOT01",
"CDISCPILOT01",
"CDISCPILOT01",
"CDISCPILOT01",
"CDISCPILOT01",
"CDISCPILOT01",
"CDISCPILOT01",
"CDISCPILOT01",
"CDISCPILOT01",
"CDISCPILOT01",
"CDISCPILOT01",
"CDISCPILOT01",
"CDISCPILOT01",
"CDISCPILOT01",
"CDISCPILOT01",
"CDISCPILOT01",
"CDISCPILOT01",
"CDISCPILOT01",
"CDISCPILOT01",
"CDISCPILOT01",
"CDISCPILOT01",
"CDISCPILOT01",
"CDISCPILOT01",
"CDISCPILOT01",
"CDISCPILOT01",
"CDISCPILOT01",
"CDISCPILOT01",
"CDISCPILOT01",
"CDISCPILOT01",
"CDISCPILOT01",
"CDISCPILOT01",
"CDISCPILOT01",
"CDISCPILOT01",
"CDISCPILOT01",
"CDISCPILOT01",
"CDISCPILOT01",
"CDISCPILOT01",
"CDISCPILOT01",
"CDISCPILOT01",
"CDISCPILOT01",
"CDISCPILOT01",
"CDISCPILOT01",
"CDISCPILOT01",
"CDISCPILOT01",
"CDISCPILOT01",
"CDISCPILOT01",
"CDISCPILOT01",
"CDISCPILOT01",
"CDISCPILOT01",
"CDISCPILOT01",
"CDISCPILOT01",
"CDISCPILOT01",
"CDISCPILOT01",
"CDISCPILOT01",
"CDISCPILOT01",
"CDISCPILOT01",
"CDISCPILOT01",
"CDISCPILOT01",
"CDISCPILOT01",
"CDISCPILOT01",
"CDISCPILOT01",
"CDISCPILOT01",
"CDISCPILOT01",
"CDISCPILOT01",
"CDISCPILOT01",
"CDISCPILOT01",
"CDISCPILOT01",
"CDISCPILOT01",
"CDISCPILOT01",
"CDISCPILOT01",
"CDISCPILOT01",
"CDISCPILOT01",
"CDISCPILOT01",
"CDISCPILOT01",
"CDISCPILOT01",
"CDISCPILOT01",
"CDISCPILOT01",
"CDISCPILOT01",
"CDISCPILOT01",
"CDISCPILOT01",
"CDISCPILOT01",
"CDISCPILOT01",
"CDISCPILOT01",
"CDISCPILOT01",
"CDISCPILOT01",
"CDISCPILOT01",
"CDISCPILOT01",
"CDISCPILOT01",
"CDISCPILOT01",
"CDISCPILOT01",
"CDISCPILOT01",
"CDISCPILOT01",
"CDISCPILOT01",
"CDISCPILOT01",
"CDISCPILOT01",
"CDISCPILOT01",
"CDISCPILOT01",
"CDISCPILOT01",
"CDISCPILOT01",
"CDISCPILOT01",
"CDISCPILOT01",
"CDISCPILOT01",
"CDISCPILOT01",
"CDISCPILOT01",
"CDISCPILOT01",
"CDISCPILOT01",
"CDISCPILOT01",
"CDISCPILOT01",
"CDISCPILOT01",
"CDISCPILOT01",
"CDISCPILOT01",
"CDISCPILOT01",
"CDISCPILOT01",
"CDISCPILOT01",
"CDISCPILOT01",
"CDISCPILOT01",
"CDISCPILOT01",
"CDISCPILOT01",
"CDISCPILOT01",
"CDISCPILOT01",
"CDISCPILOT01",
"CDISCPILOT01",
"CDISCPILOT01",
"CDISCPILOT01",
"CDISCPILOT01",
"CDISCPILOT01",
"CDISCPILOT01",
"CDISCPILOT01",
"CDISCPILOT01",
"CDISCPILOT01",
"CDISCPILOT01",
"CDISCPILOT01",
"CDISCPILOT01",
"CDISCPILOT01",
"CDISCPILOT01",
"CDISCPILOT01",
"CDISCPILOT01",
"CDISCPILOT01",
"CDISCPILOT01",
"CDISCPILOT01",
"CDISCPILOT01",
"CDISCPILOT01",
"CDISCPILOT01",
"CDISCPILOT01",
"CDISCPILOT01",
"CDISCPILOT01",
"CDISCPILOT01",
"CDISCPILOT01",
"CDISCPILOT01",
"CDISCPILOT01",
"CDISCPILOT01",
"CDISCPILOT01",
"CDISCPILOT01",
"CDISCPILOT01",
"CDISCPILOT01",
"CDISCPILOT01",
"CDISCPILOT01",
"CDISCPILOT01",
"CDISCPILOT01",
"CDISCPILOT01",
"CDISCPILOT01",
"CDISCPILOT01",
"CDISCPILOT01",
"CDISCPILOT01",
"CDISCPILOT01",
"CDISCPILOT01",
"CDISCPILOT01",
"CDISCPILOT01",
"CDISCPILOT01",
"CDISCPILOT01",
"CDISCPILOT01",
"CDISCPILOT01",
"CDISCPILOT01",
"CDISCPILOT01",
"CDISCPILOT01",
"CDISCPILOT01",
"CDISCPILOT01",
"CDISCPILOT01",
"CDISCPILOT01",
"CDISCPILOT01",
"CDISCPILOT01",
"CDISCPILOT01",
"CDISCPILOT01",
"CDISCPILOT01",
"CDISCPILOT01",
"CDISCPILOT01",
"CDISCPILOT01",
"CDISCPILOT01",
"CDISCPILOT01",
"CDISCPILOT01",
"CDISCPILOT01",
"CDISCPILOT01",
"CDISCPILOT01",
"CDISCPILOT01",
"CDISCPILOT01",
"CDISCPILOT01",
"CDISCPILOT01",
"CDISCPILOT01",
"CDISCPILOT01"  ],
"DOMAIN": [
"AE",
"AE",
"AE",
"AE",
"AE",
"AE",
"AE",
"AE",
"AE",
"AE",
"AE",
"AE",
"AE",
"AE",
"AE",
"AE",
"AE",
"AE",
"AE",
"AE",
"AE",
"AE",
"AE",
"AE",
"AE",
"AE",
"AE",
"AE",
"AE",
"AE",
"AE",
"AE",
"AE",
"AE",
"AE",
"AE",
"AE",
"AE",
"AE",
"AE",
"AE",
"AE",
"AE",
"AE",
"AE",
"AE",
"AE",
"AE",
"AE",
"AE",
"AE",
"AE",
"AE",
"AE",
"AE",
"AE",
"AE",
"AE",
"AE",
"AE",
"AE",
"AE",
"AE",
"AE",
"AE",
"AE",
"AE",
"AE",
"AE",
"AE",
"AE",
"AE",
"AE",
"AE",
"AE",
"AE",
"AE",
"AE",
"AE",
"AE",
"AE",
"AE",
"AE",
"AE",
"AE",
"AE",
"AE",
"AE",
"AE",
"AE",
"AE",
"AE",
"AE",
"AE",
"AE",
"AE",
"AE",
"AE",
"AE",
"AE",
"AE",
"AE",
"AE",
"AE",
"AE",
"AE",
"AE",
"AE",
"AE",
"AE",
"AE",
"AE",
"AE",
"AE",
"AE",
"AE",
"AE",
"AE",
"AE",
"AE",
"AE",
"AE",
"AE",
"AE",
"AE",
"AE",
"AE",
"AE",
"AE",
"AE",
"AE",
"AE",
"AE",
"AE",
"AE",
"AE",
"AE",
"AE",
"AE",
"AE",
"AE",
"AE",
"AE",
"AE",
"AE",
"AE",
"AE",
"AE",
"AE",
"AE",
"AE",
"AE",
"AE",
"AE",
"AE",
"AE",
"AE",
"AE",
"AE",
"AE",
"AE",
"AE",
"AE",
"AE",
"AE",
"AE",
"AE",
"AE",
"AE",
"AE",
"AE",
"AE",
"AE",
"AE",
"AE",
"AE",
"AE",
"AE",
"AE",
"AE",
"AE",
"AE",
"AE",
"AE",
"AE",
"AE",
"AE",
"AE",
"AE",
"AE",
"AE",
"AE",
"AE",
"AE",
"AE",
"AE",
"AE",
"AE",
"AE",
"AE",
"AE",
"AE",
"AE",
"AE",
"AE",
"AE",
"AE",
"AE",
"AE",
"AE",
"AE",
"AE",
"AE",
"AE",
"AE",
"AE",
"AE",
"AE",
"AE",
"AE",
"AE",
"AE",
"AE",
"AE",
"AE",
"AE",
"AE",
"AE",
"AE",
"AE",
"AE",
"AE",
"AE",
"AE",
"AE",
"AE",
"AE",
"AE",
"AE",
"AE",
"AE",
"AE",
"AE",
"AE",
"AE",
"AE",
"AE",
"AE",
"AE",
"AE",
"AE",
"AE",
"AE",
"AE",
"AE",
"AE",
"AE",
"AE",
"AE",
"AE",
"AE",
"AE",
"AE",
"AE",
"AE",
"AE",
"AE",
"AE",
"AE",
"AE",
"AE",
"AE",
"AE",
"AE",
"AE",
"AE",
"AE",
"AE",
"AE",
"AE",
"AE",
"AE",
"AE",
"AE",
"AE",
"AE",
"AE",
"AE",
"AE",
"AE",
"AE",
"AE",
"AE",
"AE",
"AE",
"AE",
"AE",
"AE",
"AE",
"AE",
"AE",
"AE",
"AE",
"AE",
"AE",
"AE",
"AE",
"AE",
"AE",
"AE",
"AE",
"AE",
"AE",
"AE",
"AE",
"AE",
"AE",
"AE",
"AE",
"AE",
"AE",
"AE",
"AE",
"AE",
"AE",
"AE",
"AE",
"AE",
"AE",
"AE",
"AE",
"AE",
"AE",
"AE",
"AE",
"AE",
"AE",
"AE",
"AE",
"AE",
"AE",
"AE",
"AE",
"AE",
"AE",
"AE",
"AE",
"AE",
"AE",
"AE",
"AE",
"AE",
"AE",
"AE",
"AE",
"AE",
"AE",
"AE",
"AE",
"AE",
"AE",
"AE",
"AE",
"AE",
"AE",
"AE",
"AE",
"AE",
"AE",
"AE",
"AE",
"AE",
"AE",
"AE",
"AE",
"AE",
"AE",
"AE",
"AE",
"AE",
"AE",
"AE",
"AE",
"AE",
"AE",
"AE",
"AE",
"AE",
"AE",
"AE",
"AE",
"AE",
"AE",
"AE",
"AE",
"AE",
"AE",
"AE",
"AE",
"AE",
"AE",
"AE",
"AE",
"AE",
"AE",
"AE",
"AE",
"AE",
"AE",
"AE",
"AE",
"AE",
"AE",
"AE",
"AE",
"AE",
"AE",
"AE",
"AE",
"AE",
"AE",
"AE",
"AE",
"AE",
"AE",
"AE",
"AE",
"AE",
"AE",
"AE",
"AE",
"AE",
"AE",
"AE",
"AE",
"AE",
"AE",
"AE",
"AE",
"AE",
"AE",
"AE",
"AE",
"AE",
"AE",
"AE",
"AE",
"AE",
"AE",
"AE",
"AE",
"AE",
"AE",
"AE",
"AE",
"AE",
"AE",
"AE",
"AE",
"AE",
"AE",
"AE",
"AE",
"AE",
"AE",
"AE",
"AE",
"AE",
"AE",
"AE",
"AE",
"AE",
"AE",
"AE",
"AE",
"AE",
"AE",
"AE",
"AE",
"AE",
"AE",
"AE",
"AE",
"AE",
"AE",
"AE",
"AE",
"AE",
"AE",
"AE",
"AE",
"AE",
"AE",
"AE",
"AE",
"AE",
"AE",
"AE",
"AE",
"AE",
"AE",
"AE",
"AE",
"AE",
"AE",
"AE",
"AE",
"AE",
"AE",
"AE",
"AE",
"AE",
"AE",
"AE",
"AE",
"AE",
"AE",
"AE",
"AE",
"AE",
"AE",
"AE",
"AE",
"AE",
"AE",
"AE",
"AE",
"AE",
"AE",
"AE",
"AE",
"AE",
"AE",
"AE",
"AE",
"AE",
"AE",
"AE",
"AE",
"AE",
"AE",
"AE",
"AE",
"AE",
"AE",
"AE",
"AE",
"AE",
"AE",
"AE",
"AE",
"AE",
"AE",
"AE",
"AE",
"AE",
"AE",
"AE",
"AE",
"AE",
"AE",
"AE",
"AE",
"AE",
"AE",
"AE",
"AE",
"AE",
"AE",
"AE",
"AE",
"AE",
"AE",
"AE",
"AE",
"AE",
"AE",
"AE",
"AE",
"AE",
"AE",
"AE",
"AE",
"AE",
"AE",
"AE",
"AE",
"AE",
"AE",
"AE",
"AE",
"AE",
"AE",
"AE",
"AE",
"AE",
"AE",
"AE",
"AE",
"AE",
"AE",
"AE",
"AE",
"AE",
"AE",
"AE",
"AE",
"AE",
"AE",
"AE",
"AE",
"AE",
"AE",
"AE",
"AE",
"AE",
"AE",
"AE",
"AE",
"AE",
"AE",
"AE",
"AE",
"AE",
"AE",
"AE",
"AE",
"AE",
"AE",
"AE",
"AE",
"AE",
"AE",
"AE",
"AE",
"AE",
"AE",
"AE",
"AE",
"AE",
"AE",
"AE",
"AE",
"AE",
"AE",
"AE",
"AE",
"AE",
"AE",
"AE",
"AE",
"AE",
"AE",
"AE",
"AE",
"AE",
"AE",
"AE",
"AE",
"AE",
"AE",
"AE",
"AE",
"AE",
"AE",
"AE",
"AE",
"AE",
"AE",
"AE",
"AE",
"AE",
"AE",
"AE",
"AE",
"AE",
"AE",
"AE",
"AE",
"AE",
"AE",
"AE",
"AE",
"AE",
"AE",
"AE",
"AE",
"AE",
"AE",
"AE",
"AE",
"AE",
"AE",
"AE",
"AE",
"AE",
"AE",
"AE",
"AE",
"AE",
"AE",
"AE",
"AE",
"AE",
"AE",
"AE",
"AE",
"AE",
"AE",
"AE",
"AE",
"AE",
"AE",
"AE",
"AE",
"AE",
"AE",
"AE",
"AE",
"AE",
"AE",
"AE",
"AE",
"AE",
"AE",
"AE",
"AE",
"AE",
"AE",
"AE",
"AE",
"AE",
"AE",
"AE",
"AE",
"AE",
"AE",
"AE",
"AE",
"AE",
"AE",
"AE",
"AE",
"AE",
"AE",
"AE",
"AE",
"AE",
"AE",
"AE",
"AE",
"AE",
"AE",
"AE",
"AE",
"AE",
"AE",
"AE",
"AE",
"AE",
"AE",
"AE",
"AE",
"AE",
"AE",
"AE",
"AE",
"AE",
"AE",
"AE",
"AE",
"AE",
"AE",
"AE",
"AE",
"AE",
"AE",
"AE",
"AE",
"AE",
"AE",
"AE",
"AE",
"AE",
"AE",
"AE",
"AE",
"AE",
"AE",
"AE",
"AE",
"AE",
"AE",
"AE",
"AE",
"AE",
"AE",
"AE",
"AE",
"AE",
"AE",
"AE",
"AE",
"AE",
"AE",
"AE",
"AE",
"AE",
"AE",
"AE",
"AE",
"AE",
"AE",
"AE",
"AE",
"AE",
"AE",
"AE",
"AE",
"AE",
"AE",
"AE",
"AE",
"AE",
"AE",
"AE",
"AE",
"AE",
"AE",
"AE",
"AE",
"AE",
"AE",
"AE",
"AE",
"AE",
"AE",
"AE",
"AE",
"AE",
"AE",
"AE",
"AE",
"AE",
"AE",
"AE",
"AE",
"AE",
"AE",
"AE",
"AE",
"AE",
"AE",
"AE",
"AE",
"AE",
"AE",
"AE",
"AE",
"AE",
"AE",
"AE",
"AE",
"AE",
"AE",
"AE",
"AE",
"AE",
"AE",
"AE",
"AE",
"AE",
"AE",
"AE",
"AE",
"AE",
"AE",
"AE",
"AE",
"AE",
"AE",
"AE",
"AE",
"AE",
"AE",
"AE",
"AE",
"AE",
"AE",
"AE",
"AE",
"AE",
"AE",
"AE",
"AE",
"AE",
"AE",
"AE",
"AE",
"AE",
"AE",
"AE",
"AE",
"AE",
"AE",
"AE",
"AE",
"AE",
"AE",
"AE",
"AE",
"AE",
"AE",
"AE",
"AE",
"AE",
"AE",
"AE",
"AE",
"AE",
"AE",
"AE",
"AE",
"AE",
"AE",
"AE",
"AE",
"AE",
"AE",
"AE",
"AE",
"AE",
"AE",
"AE",
"AE",
"AE",
"AE",
"AE",
"AE",
"AE",
"AE",
"AE",
"AE",
"AE",
"AE",
"AE",
"AE",
"AE",
"AE",
"AE",
"AE",
"AE",
"AE",
"AE",
"AE",
"AE",
"AE",
"AE",
"AE",
"AE",
"AE"  ],
"USUBJID": [
"01-701-1015",
"01-701-1015",
"01-701-1015",
"01-701-1023",
"01-701-1023",
"01-701-1023",
"01-701-1028",
"01-701-1028",
"01-701-1034",
"01-701-1034",
"01-701-1047",
"01-701-1047",
"01-701-1047",
"01-701-1097",
"01-701-1097",
"01-701-1097",
"01-701-1097",
"01-701-1097",
"01-701-1097",
"01-701-1097",
"01-701-1097",
"01-701-1097",
"01-701-1097",
"01-701-1111",
"01-701-1111",
"01-701-1111",
"01-701-1111",
"01-701-1111",
"01-701-1111",
"01-701-1115",
"01-701-1115",
"01-701-1115",
"01-701-1115",
"01-701-1115",
"01-701-1115",
"01-701-1115",
"01-701-1115",
"01-701-1118",
"01-701-1130",
"01-701-1130",
"01-701-1130",
"01-701-1130",
"01-701-1130",
"01-701-1130",
"01-701-1130",
"01-701-1133",
"01-701-1133",
"01-701-1133",
"01-701-1133",
"01-701-1146",
"01-701-1146",
"01-701-1146",
"01-701-1146",
"01-701-1146",
"01-701-1146",
"01-701-1146",
"01-701-1146",
"01-701-1146",
"01-701-1146",
"01-701-1148",
"01-701-1148",
"01-701-1148",
"01-701-1148",
"01-701-1148",
"01-701-1148",
"01-701-1148",
"01-701-1148",
"01-701-1148",
"01-701-1153",
"01-701-1180",
"01-701-1180",
"01-701-1180",
"01-701-1180",
"01-701-1180",
"01-701-1180",
"01-701-1180",
"01-701-1181",
"01-701-1188",
"01-701-1188",
"01-701-1188",
"01-701-1188",
"01-701-1188",
"01-701-1188",
"01-701-1188",
"01-701-1188",
"01-701-1192",
"01-701-1192",
"01-701-1192",
"01-701-1192",
"01-701-1192",
"01-701-1192",
"01-701-1192",
"01-701-1192",
"01-701-1192",
"01-701-1192",
"01-701-1203",
"01-701-1211",
"01-701-1211",
"01-701-1211",
"01-701-1211",
"01-701-1211",
"01-701-1211",
"01-701-1211",
"01-701-1211",
"01-701-1211",
"01-701-1239",
"01-701-1239",
"01-701-1239",
"01-701-1239",
"01-701-1239",
"01-701-1239",
"01-701-1239",
"01-701-1239",
"01-701-1275",
"01-701-1275",
"01-701-1275",
"01-701-1275",
"01-701-1275",
"01-701-1275",
"01-701-1275",
"01-701-1275",
"01-701-1287",
"01-701-1287",
"01-701-1287",
"01-701-1287",
"01-701-1294",
"01-701-1294",
"01-701-1294",
"01-701-1294",
"01-701-1294",
"01-701-1294",
"01-701-1302",
"01-701-1302",
"01-701-1302",
"01-701-1302",
"01-701-1302",
"01-701-1302",
"01-701-1302",
"01-701-1302",
"01-701-1302",
"01-701-1302",
"01-701-1302",
"01-701-1302",
"01-701-1302",
"01-701-1302",
"01-701-1302",
"01-701-1302",
"01-701-1302",
"01-701-1302",
"01-701-1302",
"01-701-1302",
"01-701-1302",
"01-701-1302",
"01-701-1317",
"01-701-1317",
"01-701-1317",
"01-701-1317",
"01-701-1317",
"01-701-1317",
"01-701-1317",
"01-701-1317",
"01-701-1317",
"01-701-1324",
"01-701-1324",
"01-701-1324",
"01-701-1341",
"01-701-1341",
"01-701-1341",
"01-701-1341",
"01-701-1341",
"01-701-1360",
"01-701-1360",
"01-701-1360",
"01-701-1363",
"01-701-1363",
"01-701-1363",
"01-701-1363",
"01-701-1363",
"01-701-1383",
"01-701-1383",
"01-701-1383",
"01-701-1383",
"01-701-1383",
"01-701-1383",
"01-701-1383",
"01-701-1383",
"01-701-1383",
"01-701-1383",
"01-701-1383",
"01-701-1383",
"01-701-1387",
"01-701-1387",
"01-701-1392",
"01-701-1415",
"01-701-1415",
"01-701-1415",
"01-701-1415",
"01-701-1442",
"01-701-1444",
"01-701-1444",
"01-701-1444",
"01-701-1444",
"01-701-1444",
"01-701-1444",
"01-701-1444",
"01-701-1444",
"01-702-1082",
"01-702-1082",
"01-702-1082",
"01-702-1082",
"01-702-1082",
"01-702-1082",
"01-703-1042",
"01-703-1042",
"01-703-1076",
"01-703-1076",
"01-703-1076",
"01-703-1076",
"01-703-1076",
"01-703-1076",
"01-703-1076",
"01-703-1086",
"01-703-1086",
"01-703-1086",
"01-703-1086",
"01-703-1100",
"01-703-1100",
"01-703-1100",
"01-703-1100",
"01-703-1100",
"01-703-1100",
"01-703-1119",
"01-703-1119",
"01-703-1119",
"01-703-1119",
"01-703-1175",
"01-703-1182",
"01-703-1182",
"01-703-1182",
"01-703-1182",
"01-703-1210",
"01-703-1210",
"01-703-1210",
"01-703-1258",
"01-703-1258",
"01-703-1258",
"01-703-1258",
"01-703-1258",
"01-703-1295",
"01-703-1299",
"01-703-1299",
"01-703-1299",
"01-703-1299",
"01-703-1299",
"01-703-1299",
"01-703-1299",
"01-703-1335",
"01-703-1403",
"01-703-1403",
"01-703-1403",
"01-703-1403",
"01-703-1439",
"01-703-1439",
"01-704-1008",
"01-704-1008",
"01-704-1008",
"01-704-1009",
"01-704-1009",
"01-704-1009",
"01-704-1009",
"01-704-1009",
"01-704-1010",
"01-704-1010",
"01-704-1010",
"01-704-1010",
"01-704-1010",
"01-704-1010",
"01-704-1010",
"01-704-1017",
"01-704-1017",
"01-704-1017",
"01-704-1017",
"01-704-1017",
"01-704-1017",
"01-704-1025",
"01-704-1025",
"01-704-1025",
"01-704-1025",
"01-704-1065",
"01-704-1065",
"01-704-1065",
"01-704-1065",
"01-704-1065",
"01-704-1065",
"01-704-1065",
"01-704-1065",
"01-704-1065",
"01-704-1065",
"01-704-1074",
"01-704-1074",
"01-704-1093",
"01-704-1093",
"01-704-1093",
"01-704-1114",
"01-704-1114",
"01-704-1114",
"01-704-1114",
"01-704-1114",
"01-704-1120",
"01-704-1120",
"01-704-1120",
"01-704-1120",
"01-704-1120",
"01-704-1135",
"01-704-1135",
"01-704-1164",
"01-704-1164",
"01-704-1218",
"01-704-1241",
"01-704-1241",
"01-704-1266",
"01-704-1266",
"01-704-1266",
"01-704-1266",
"01-704-1266",
"01-704-1266",
"01-704-1266",
"01-704-1266",
"01-704-1266",
"01-704-1323",
"01-704-1323",
"01-704-1323",
"01-704-1323",
"01-704-1325",
"01-704-1325",
"01-704-1332",
"01-704-1332",
"01-704-1332",
"01-704-1332",
"01-704-1351",
"01-704-1351",
"01-704-1388",
"01-704-1435",
"01-704-1445",
"01-705-1031",
"01-705-1059",
"01-705-1186",
"01-705-1199",
"01-705-1280",
"01-705-1281",
"01-705-1281",
"01-705-1281",
"01-705-1292",
"01-705-1292",
"01-705-1303",
"01-705-1303",
"01-705-1303",
"01-705-1310",
"01-705-1310",
"01-705-1349",
"01-705-1349",
"01-705-1349",
"01-705-1349",
"01-705-1393",
"01-705-1393",
"01-705-1393",
"01-705-1431",
"01-705-1431",
"01-706-1041",
"01-706-1041",
"01-706-1041",
"01-706-1041",
"01-706-1041",
"01-706-1041",
"01-706-1049",
"01-706-1049",
"01-706-1384",
"01-706-1384",
"01-706-1384",
"01-706-1384",
"01-706-1384",
"01-707-1206",
"01-707-1206",
"01-707-1206",
"01-707-1206",
"01-708-1019",
"01-708-1019",
"01-708-1019",
"01-708-1019",
"01-708-1019",
"01-708-1032",
"01-708-1084",
"01-708-1084",
"01-708-1084",
"01-708-1087",
"01-708-1087",
"01-708-1087",
"01-708-1087",
"01-708-1158",
"01-708-1158",
"01-708-1178",
"01-708-1178",
"01-708-1178",
"01-708-1178",
"01-708-1178",
"01-708-1178",
"01-708-1178",
"01-708-1178",
"01-708-1213",
"01-708-1216",
"01-708-1216",
"01-708-1216",
"01-708-1253",
"01-708-1253",
"01-708-1253",
"01-708-1253",
"01-708-1272",
"01-708-1272",
"01-708-1272",
"01-708-1272",
"01-708-1272",
"01-708-1272",
"01-708-1272",
"01-708-1272",
"01-708-1286",
"01-708-1286",
"01-708-1286",
"01-708-1286",
"01-708-1296",
"01-708-1296",
"01-708-1296",
"01-708-1296",
"01-708-1297",
"01-708-1297",
"01-708-1297",
"01-708-1316",
"01-708-1316",
"01-708-1336",
"01-708-1336",
"01-708-1336",
"01-708-1336",
"01-708-1336",
"01-708-1347",
"01-708-1347",
"01-708-1347",
"01-708-1347",
"01-708-1348",
"01-708-1348",
"01-708-1353",
"01-708-1353",
"01-708-1372",
"01-708-1406",
"01-708-1428",
"01-708-1428",
"01-708-1428",
"01-708-1428",
"01-708-1428",
"01-708-1428",
"01-708-1428",
"01-709-1007",
"01-709-1007",
"01-709-1007",
"01-709-1020",
"01-709-1020",
"01-709-1020",
"01-709-1020",
"01-709-1029",
"01-709-1029",
"01-709-1029",
"01-709-1029",
"01-709-1029",
"01-709-1029",
"01-709-1029",
"01-709-1029",
"01-709-1029",
"01-709-1029",
"01-709-1081",
"01-709-1081",
"01-709-1088",
"01-709-1088",
"01-709-1099",
"01-709-1099",
"01-709-1099",
"01-709-1099",
"01-709-1099",
"01-709-1099",
"01-709-1099",
"01-709-1102",
"01-709-1102",
"01-709-1102",
"01-709-1102",
"01-709-1102",
"01-709-1102",
"01-709-1168",
"01-709-1168",
"01-709-1168",
"01-709-1217",
"01-709-1217",
"01-709-1217",
"01-709-1217",
"01-709-1217",
"01-709-1217",
"01-709-1217",
"01-709-1217",
"01-709-1217",
"01-709-1238",
"01-709-1238",
"01-709-1238",
"01-709-1238",
"01-709-1238",
"01-709-1238",
"01-709-1238",
"01-709-1238",
"01-709-1259",
"01-709-1259",
"01-709-1259",
"01-709-1259",
"01-709-1259",
"01-709-1259",
"01-709-1259",
"01-709-1259",
"01-709-1259",
"01-709-1285",
"01-709-1285",
"01-709-1285",
"01-709-1285",
"01-709-1301",
"01-709-1306",
"01-709-1306",
"01-709-1306",
"01-709-1306",
"01-709-1306",
"01-709-1306",
"01-709-1309",
"01-709-1309",
"01-709-1309",
"01-709-1309",
"01-709-1309",
"01-709-1309",
"01-709-1309",
"01-709-1309",
"01-709-1309",
"01-709-1309",
"01-709-1309",
"01-709-1312",
"01-709-1312",
"01-709-1326",
"01-709-1326",
"01-709-1326",
"01-709-1326",
"01-709-1326",
"01-709-1326",
"01-709-1329",
"01-709-1329",
"01-709-1339",
"01-709-1339",
"01-709-1424",
"01-710-1002",
"01-710-1006",
"01-710-1006",
"01-710-1006",
"01-710-1006",
"01-710-1006",
"01-710-1006",
"01-710-1006",
"01-710-1006",
"01-710-1006",
"01-710-1006",
"01-710-1006",
"01-710-1021",
"01-710-1021",
"01-710-1027",
"01-710-1027",
"01-710-1045",
"01-710-1045",
"01-710-1045",
"01-710-1045",
"01-710-1045",
"01-710-1045",
"01-710-1045",
"01-710-1053",
"01-710-1053",
"01-710-1060",
"01-710-1060",
"01-710-1060",
"01-710-1060",
"01-710-1060",
"01-710-1060",
"01-710-1060",
"01-710-1070",
"01-710-1070",
"01-710-1070",
"01-710-1070",
"01-710-1070",
"01-710-1070",
"01-710-1077",
"01-710-1077",
"01-710-1077",
"01-710-1077",
"01-710-1077",
"01-710-1083",
"01-710-1137",
"01-710-1137",
"01-710-1137",
"01-710-1137",
"01-710-1142",
"01-710-1142",
"01-710-1142",
"01-710-1142",
"01-710-1142",
"01-710-1154",
"01-710-1154",
"01-710-1166",
"01-710-1166",
"01-710-1166",
"01-710-1166",
"01-710-1166",
"01-710-1183",
"01-710-1183",
"01-710-1187",
"01-710-1235",
"01-710-1235",
"01-710-1235",
"01-710-1249",
"01-710-1249",
"01-710-1249",
"01-710-1249",
"01-710-1264",
"01-710-1264",
"01-710-1264",
"01-710-1264",
"01-710-1264",
"01-710-1264",
"01-710-1264",
"01-710-1264",
"01-710-1264",
"01-710-1270",
"01-710-1270",
"01-710-1271",
"01-710-1271",
"01-710-1271",
"01-710-1271",
"01-710-1271",
"01-710-1278",
"01-710-1278",
"01-710-1278",
"01-710-1278",
"01-710-1278",
"01-710-1300",
"01-710-1300",
"01-710-1300",
"01-710-1300",
"01-710-1314",
"01-710-1315",
"01-710-1315",
"01-710-1315",
"01-710-1315",
"01-710-1354",
"01-710-1354",
"01-710-1358",
"01-710-1358",
"01-710-1358",
"01-710-1368",
"01-710-1368",
"01-710-1368",
"01-710-1385",
"01-710-1385",
"01-710-1385",
"01-710-1385",
"01-710-1385",
"01-710-1385",
"01-710-1385",
"01-710-1408",
"01-710-1408",
"01-711-1012",
"01-711-1012",
"01-711-1012",
"01-711-1012",
"01-711-1012",
"01-711-1012",
"01-711-1036",
"01-711-1036",
"01-711-1036",
"01-711-1143",
"01-711-1143",
"01-711-1143",
"01-711-1143",
"01-711-1143",
"01-711-1143",
"01-711-1143",
"01-711-1143",
"01-711-1143",
"01-711-1143",
"01-711-1433",
"01-711-1433",
"01-711-1433",
"01-713-1043",
"01-713-1043",
"01-713-1043",
"01-713-1043",
"01-713-1043",
"01-713-1073",
"01-713-1141",
"01-713-1141",
"01-713-1141",
"01-713-1179",
"01-713-1179",
"01-713-1179",
"01-713-1179",
"01-713-1179",
"01-713-1179",
"01-713-1179",
"01-713-1179",
"01-713-1179",
"01-713-1179",
"01-713-1179",
"01-713-1209",
"01-713-1209",
"01-713-1209",
"01-713-1209",
"01-713-1256",
"01-713-1269",
"01-713-1269",
"01-713-1269",
"01-713-1269",
"01-713-1269",
"01-713-1269",
"01-713-1448",
"01-713-1448",
"01-714-1035",
"01-714-1035",
"01-714-1035",
"01-714-1035",
"01-714-1035",
"01-714-1068",
"01-714-1068",
"01-714-1068",
"01-714-1068",
"01-714-1068",
"01-714-1195",
"01-714-1195",
"01-714-1195",
"01-714-1195",
"01-714-1195",
"01-714-1195",
"01-714-1288",
"01-714-1288",
"01-714-1288",
"01-714-1288",
"01-714-1288",
"01-714-1288",
"01-714-1288",
"01-714-1288",
"01-714-1375",
"01-714-1375",
"01-714-1375",
"01-714-1375",
"01-714-1375",
"01-714-1375",
"01-714-1425",
"01-715-1107",
"01-715-1107",
"01-715-1207",
"01-715-1319",
"01-715-1321",
"01-715-1321",
"01-715-1321",
"01-715-1405",
"01-715-1405",
"01-715-1405",
"01-715-1405",
"01-715-1405",
"01-716-1024",
"01-716-1024",
"01-716-1026",
"01-716-1026",
"01-716-1026",
"01-716-1026",
"01-716-1026",
"01-716-1026",
"01-716-1044",
"01-716-1044",
"01-716-1063",
"01-716-1063",
"01-716-1063",
"01-716-1063",
"01-716-1063",
"01-716-1071",
"01-716-1071",
"01-716-1071",
"01-716-1094",
"01-716-1094",
"01-716-1094",
"01-716-1103",
"01-716-1103",
"01-716-1103",
"01-716-1103",
"01-716-1108",
"01-716-1108",
"01-716-1151",
"01-716-1151",
"01-716-1151",
"01-716-1157",
"01-716-1157",
"01-716-1157",
"01-716-1160",
"01-716-1160",
"01-716-1167",
"01-716-1167",
"01-716-1167",
"01-716-1167",
"01-716-1177",
"01-716-1189",
"01-716-1189",
"01-716-1189",
"01-716-1189",
"01-716-1229",
"01-716-1229",
"01-716-1298",
"01-716-1298",
"01-716-1298",
"01-716-1308",
"01-716-1311",
"01-716-1311",
"01-716-1311",
"01-716-1364",
"01-716-1364",
"01-716-1373",
"01-716-1373",
"01-716-1418",
"01-716-1418",
"01-716-1418",
"01-716-1418",
"01-716-1418",
"01-716-1418",
"01-716-1441",
"01-716-1447",
"01-716-1447",
"01-716-1447",
"01-716-1447",
"01-716-1447",
"01-717-1004",
"01-717-1004",
"01-717-1004",
"01-717-1004",
"01-717-1004",
"01-717-1004",
"01-717-1004",
"01-717-1004",
"01-717-1004",
"01-717-1004",
"01-717-1004",
"01-717-1004",
"01-717-1004",
"01-717-1109",
"01-717-1109",
"01-717-1109",
"01-717-1109",
"01-717-1109",
"01-717-1109",
"01-717-1109",
"01-717-1174",
"01-717-1174",
"01-717-1174",
"01-717-1174",
"01-717-1174",
"01-717-1174",
"01-717-1201",
"01-717-1201",
"01-717-1344",
"01-717-1344",
"01-717-1344",
"01-717-1344",
"01-717-1357",
"01-717-1357",
"01-717-1357",
"01-717-1357",
"01-717-1357",
"01-717-1357",
"01-717-1357",
"01-717-1357",
"01-717-1446",
"01-717-1446",
"01-717-1446",
"01-717-1446",
"01-717-1446",
"01-717-1446",
"01-718-1066",
"01-718-1066",
"01-718-1066",
"01-718-1066",
"01-718-1079",
"01-718-1079",
"01-718-1079",
"01-718-1101",
"01-718-1101",
"01-718-1101",
"01-718-1101",
"01-718-1139",
"01-718-1139",
"01-718-1150",
"01-718-1150",
"01-718-1150",
"01-718-1150",
"01-718-1150",
"01-718-1150",
"01-718-1150",
"01-718-1170",
"01-718-1170",
"01-718-1170",
"01-718-1170",
"01-718-1170",
"01-718-1170",
"01-718-1250",
"01-718-1250",
"01-718-1250",
"01-718-1250",
"01-718-1250",
"01-718-1250",
"01-718-1250",
"01-718-1250",
"01-718-1254",
"01-718-1254",
"01-718-1254",
"01-718-1254",
"01-718-1254",
"01-718-1254",
"01-718-1254",
"01-718-1328",
"01-718-1328",
"01-718-1328",
"01-718-1328",
"01-718-1355",
"01-718-1355",
"01-718-1355",
"01-718-1355",
"01-718-1355",
"01-718-1355",
"01-718-1355",
"01-718-1355",
"01-718-1355",
"01-718-1355",
"01-718-1355",
"01-718-1371",
"01-718-1371",
"01-718-1371",
"01-718-1371",
"01-718-1371",
"01-718-1371",
"01-718-1427",
"01-718-1427",
"01-718-1427",
"01-718-1427",
"01-718-1427",
"01-718-1427",
"01-718-1427",
"01-718-1427",
"01-718-1427",
"01-718-1427",
"01-718-1427",
"01-718-1427"  ],
"AESEQ": [
1,
1,
3,
3,
2,
4,
1,
2,
1,
2,
4,
2,
3,
4,
10,
3,
1,
9,
8,
2,
5,
6,
7,
7,
8,
4,
3,
6,
5,
9,
1,
5,
4,
8,
2,
6,
7,
1,
5,
6,
4,
8,
7,
2,
3,
1,
3,
2,
4,
5,
7,
3,
11,
9,
6,
8,
10,
4,
2,
10,
1,
2,
6,
9,
8,
7,
5,
4,
2,
9,
8,
7,
4,
6,
5,
2,
1,
7,
1,
3,
2,
4,
5,
6,
8,
13,
15,
14,
4,
9,
6,
11,
1,
10,
5,
1,
5,
1,
7,
8,
4,
2,
3,
6,
9,
5,
1,
6,
9,
10,
3,
2,
8,
9,
12,
10,
11,
14,
15,
13,
2,
3,
2,
5,
1,
3,
5,
1,
2,
4,
6,
16,
1,
17,
15,
9,
11,
14,
21,
13,
2,
23,
22,
8,
18,
10,
5,
4,
6,
7,
19,
20,
3,
3,
4,
5,
2,
6,
7,
9,
8,
1,
1,
2,
4,
2,
4,
5,
1,
3,
1,
2,
3,
3,
6,
2,
4,
1,
3,
5,
6,
8,
2,
1,
4,
7,
9,
10,
12,
11,
1,
2,
2,
6,
3,
2,
5,
1,
1,
4,
6,
2,
5,
7,
8,
3,
9,
6,
8,
10,
4,
5,
1,
2,
5,
4,
7,
2,
1,
3,
6,
2,
3,
6,
5,
1,
3,
4,
8,
9,
5,
1,
2,
3,
4,
1,
1,
2,
3,
4,
2,
3,
1,
6,
7,
2,
5,
3,
1,
3,
4,
6,
8,
5,
7,
2,
2,
4,
2,
3,
5,
1,
2,
1,
3,
2,
5,
1,
4,
6,
3,
6,
7,
1,
3,
4,
5,
2,
4,
3,
1,
8,
7,
2,
5,
2,
1,
6,
1,
4,
3,
7,
9,
8,
6,
5,
2,
10,
2,
1,
2,
4,
3,
1,
5,
2,
4,
3,
6,
4,
5,
1,
3,
1,
2,
2,
3,
1,
2,
1,
13,
5,
14,
2,
12,
16,
10,
15,
1,
4,
3,
2,
1,
2,
1,
4,
6,
1,
5,
4,
3,
1,
1,
1,
1,
1,
1,
2,
1,
2,
1,
3,
2,
1,
3,
2,
4,
1,
2,
4,
1,
3,
2,
1,
3,
4,
2,
1,
1,
7,
2,
5,
8,
9,
1,
2,
6,
9,
8,
7,
10,
4,
8,
5,
6,
5,
1,
2,
3,
4,
1,
2,
4,
6,
3,
4,
2,
6,
1,
2,
9,
5,
7,
8,
6,
1,
2,
4,
2,
4,
1,
3,
5,
4,
8,
6,
4,
8,
1,
10,
11,
2,
9,
12,
3,
1,
4,
2,
4,
6,
2,
7,
1,
2,
3,
2,
1,
7,
2,
6,
1,
3,
7,
8,
6,
5,
3,
2,
2,
3,
1,
2,
3,
6,
2,
5,
4,
7,
1,
2,
3,
4,
3,
1,
4,
2,
2,
13,
5,
4,
8,
12,
14,
16,
9,
15,
2,
1,
1,
2,
8,
2,
6,
4,
7,
3,
5,
1,
3,
2,
4,
6,
5,
5,
6,
2,
3,
10,
2,
1,
4,
7,
5,
9,
11,
2,
4,
3,
6,
1,
5,
8,
7,
5,
6,
3,
4,
8,
9,
2,
11,
7,
5,
6,
1,
4,
1,
9,
2,
8,
6,
1,
7,
12,
14,
8,
11,
15,
5,
6,
10,
7,
13,
4,
1,
2,
5,
1,
2,
6,
4,
3,
1,
2,
2,
1,
1,
2,
12,
1,
4,
11,
10,
6,
7,
2,
9,
3,
5,
1,
3,
3,
4,
12,
5,
10,
11,
13,
9,
1,
3,
4,
4,
5,
6,
7,
8,
3,
1,
3,
6,
5,
2,
4,
1,
3,
1,
4,
5,
2,
1,
2,
4,
1,
3,
1,
2,
4,
3,
5,
1,
2,
4,
1,
2,
3,
5,
2,
1,
1,
3,
1,
2,
3,
1,
2,
4,
5,
7,
9,
4,
6,
8,
1,
2,
3,
1,
2,
3,
4,
1,
5,
2,
7,
4,
6,
1,
5,
4,
3,
2,
1,
2,
7,
1,
5,
6,
1,
2,
3,
2,
1,
2,
4,
3,
7,
3,
6,
8,
4,
5,
2,
4,
2,
1,
3,
2,
7,
6,
5,
4,
3,
1,
8,
13,
12,
3,
6,
2,
11,
7,
1,
14,
3,
1,
2,
1,
4,
7,
5,
6,
1,
3,
4,
2,
4,
6,
14,
2,
7,
1,
9,
10,
15,
5,
13,
1,
3,
2,
4,
2,
1,
2,
4,
6,
3,
5,
3,
4,
7,
5,
4,
2,
6,
3,
5,
4,
6,
2,
8,
5,
6,
9,
7,
4,
7,
8,
5,
2,
1,
3,
4,
9,
4,
6,
8,
5,
7,
3,
1,
3,
2,
1,
1,
3,
2,
4,
4,
3,
2,
1,
6,
3,
2,
4,
7,
5,
6,
1,
2,
3,
2,
2,
1,
6,
4,
7,
2,
1,
3,
1,
2,
3,
2,
5,
3,
1,
1,
2,
3,
4,
2,
2,
3,
4,
2,
1,
3,
5,
1,
2,
1,
2,
1,
4,
3,
2,
1,
6,
4,
5,
1,
2,
4,
3,
2,
1,
1,
2,
2,
7,
10,
4,
3,
8,
1,
5,
4,
2,
1,
3,
7,
17,
12,
10,
1,
5,
8,
9,
15,
11,
14,
16,
19,
4,
3,
8,
5,
6,
2,
7,
3,
2,
6,
4,
1,
5,
2,
1,
3,
1,
4,
5,
9,
1,
8,
7,
3,
2,
5,
6,
2,
7,
8,
6,
9,
3,
2,
4,
1,
3,
2,
3,
1,
6,
5,
4,
1,
3,
2,
3,
8,
4,
9,
7,
10,
5,
6,
3,
1,
2,
4,
5,
9,
11,
1,
6,
3,
7,
8,
2,
4,
5,
1,
3,
9,
8,
7,
1,
2,
3,
4,
5,
6,
7,
8,
10,
11,
4,
3,
13,
2,
9,
3,
6,
1,
5,
2,
4,
7,
10,
12,
11,
1,
15,
5,
2,
4,
6,
8,
16  ],
"AESPID": [
"E07",
"E08",
"E06",
"E10",
"E09",
"E08",
"E04",
"E05",
"E08",
"E07",
"E09",
"E06",
"E08",
"E06",
"E06",
"E07",
"E04",
"E11",
"E10",
"E05",
"E08",
"E12",
"E09",
"E16",
"E17",
"E14",
"E06",
"E18",
"E15",
"E14",
"E09",
"E09",
"E10",
"E12",
"E11",
"E11",
"E13",
"E06",
"E09",
"E10",
"E08",
"E12",
"E11",
"E07",
"E06",
"E04",
"E04",
"E05",
"E05",
"E12",
"E12",
"E10",
"E16",
"E14",
"E13",
"E13",
"E15",
"E11",
"E09",
"E27",
"E20",
"E21",
"E25",
"E26",
"E03",
"E28",
"E24",
"E23",
"E06",
"E07",
"E06",
"E05",
"E04",
"E02",
"E03",
"E01",
"E16",
"E09",
"E04",
"E04",
"E05",
"E05",
"E06",
"E06",
"E10",
"E13",
"E12",
"E14",
"E01",
"E01",
"E09",
"E11",
"E06",
"E10",
"E08",
"E05",
"E05",
"E08",
"E12",
"E13",
"E09",
"E03",
"E04",
"E06",
"E11",
"E13",
"E11",
"E11",
"E16",
"E17",
"E12",
"E15",
"E14",
"E09",
"E06",
"E10",
"E04",
"E08",
"E11",
"E07",
"E05",
"E04",
"E03",
"E05",
"E02",
"E08",
"E08",
"E06",
"E07",
"E07",
"E09",
"E27",
"E21",
"E28",
"E19",
"E17",
"E20",
"E25",
"E31",
"E23",
"E24",
"E33",
"E32",
"E16",
"E16",
"E18",
"E13",
"E22",
"E14",
"E15",
"E29",
"E30",
"E26",
"E13",
"E14",
"E15",
"E12",
"E16",
"E16",
"E18",
"E17",
"E11",
"E04",
"E06",
"E05",
"E10",
"E12",
"E13",
"E09",
"E11",
"E08",
"E09",
"E10",
"E11",
"E13",
"E03",
"E03",
"E09",
"E06",
"E08",
"E09",
"E09",
"E05",
"E04",
"E07",
"E07",
"E10",
"E11",
"E13",
"E12",
"E08",
"E09",
"E04",
"E12",
"E10",
"E09",
"E11",
"E03",
"E11",
"E11",
"E15",
"E12",
"E12",
"E16",
"E14",
"E13",
"E07",
"E03",
"E06",
"E08",
"E04",
"E02",
"E04",
"E05",
"E09",
"E08",
"E08",
"E01",
"E02",
"E05",
"E07",
"E01",
"E01",
"E01",
"E02",
"E04",
"E04",
"E06",
"E07",
"E09",
"E08",
"E04",
"E04",
"E05",
"E05",
"E01",
"E05",
"E05",
"E07",
"E07",
"E04",
"E04",
"E01",
"E08",
"E08",
"E06",
"E06",
"E07",
"E06",
"E01",
"E05",
"E05",
"E07",
"E06",
"E06",
"E02",
"E01",
"E03",
"E01",
"E02",
"E07",
"E01",
"E01",
"E03",
"E05",
"E06",
"E07",
"E09",
"E10",
"E08",
"E03",
"E07",
"E08",
"E01",
"E04",
"E05",
"E06",
"E03",
"E16",
"E13",
"E14",
"E12",
"E11",
"E15",
"E05",
"E02",
"E01",
"E06",
"E13",
"E12",
"E10",
"E16",
"E18",
"E17",
"E15",
"E14",
"E07",
"E19",
"E09",
"E08",
"E02",
"E06",
"E05",
"E06",
"E07",
"E03",
"E05",
"E04",
"E02",
"E04",
"E04",
"E01",
"E01",
"E01",
"E01",
"E02",
"E07",
"E05",
"E03",
"E04",
"E13",
"E12",
"E16",
"E10",
"E10",
"E18",
"E15",
"E17",
"E11",
"E10",
"E09",
"E08",
"E07",
"E05",
"E04",
"E05",
"E02",
"E01",
"E01",
"E03",
"E02",
"E01",
"E08",
"E06",
"E02",
"E02",
"E02",
"E06",
"E01",
"E05",
"E04",
"E04",
"E02",
"E01",
"E02",
"E03",
"E03",
"E02",
"E03",
"E06",
"E03",
"E05",
"E04",
"E01",
"E05",
"E04",
"E04",
"E05",
"E02",
"E02",
"E01",
"E07",
"E03",
"E08",
"E01",
"E02",
"E03",
"E01",
"E05",
"E04",
"E06",
"E03",
"E06",
"E05",
"E04",
"E06",
"E02",
"E03",
"E04",
"E05",
"E05",
"E02",
"E07",
"E06",
"E03",
"E02",
"E05",
"E06",
"E05",
"E07",
"E13",
"E06",
"E10",
"E11",
"E09",
"E03",
"E05",
"E08",
"E03",
"E05",
"E01",
"E02",
"E04",
"E03",
"E05",
"E02",
"E11",
"E08",
"E12",
"E10",
"E14",
"E13",
"E09",
"E05",
"E08",
"E06",
"E09",
"E04",
"E04",
"E05",
"E03",
"E07",
"E02",
"E03",
"E04",
"E04",
"E05",
"E11",
"E08",
"E10",
"E06",
"E09",
"E04",
"E05",
"E03",
"E02",
"E05",
"E04",
"E09",
"E10",
"E03",
"E04",
"E02",
"E02",
"E01",
"E01",
"E03",
"E03",
"E04",
"E02",
"E03",
"E04",
"E03",
"E01",
"E04",
"E02",
"E08",
"E11",
"E07",
"E09",
"E10",
"E13",
"E12",
"E14",
"E15",
"E16",
"E06",
"E05",
"E02",
"E04",
"E06",
"E02",
"E02",
"E05",
"E05",
"E04",
"E01",
"E01",
"E01",
"E02",
"E02",
"E04",
"E05",
"E03",
"E04",
"E02",
"E05",
"E05",
"E06",
"E09",
"E07",
"E08",
"E13",
"E14",
"E10",
"E07",
"E09",
"E08",
"E04",
"E02",
"E05",
"E10",
"E06",
"E08",
"E08",
"E06",
"E07",
"E12",
"E13",
"E05",
"E14",
"E11",
"E04",
"E05",
"E03",
"E06",
"E02",
"E03",
"E02",
"E02",
"E04",
"E01",
"E01",
"E10",
"E12",
"E09",
"E08",
"E13",
"E06",
"E07",
"E02",
"E04",
"E03",
"E05",
"E04",
"E05",
"E07",
"E05",
"E06",
"E08",
"E04",
"E03",
"E02",
"E03",
"E05",
"E04",
"E05",
"E01",
"E11",
"E01",
"E05",
"E10",
"E09",
"E06",
"E07",
"E02",
"E08",
"E03",
"E04",
"E01",
"E02",
"E05",
"E06",
"E10",
"E06",
"E08",
"E09",
"E11",
"E07",
"E05",
"E03",
"E04",
"E07",
"E06",
"E08",
"E09",
"E10",
"E04",
"E05",
"E10",
"E13",
"E12",
"E09",
"E11",
"E08",
"E06",
"E04",
"E01",
"E01",
"E05",
"E04",
"E05",
"E07",
"E04",
"E06",
"E02",
"E03",
"E05",
"E07",
"E06",
"E04",
"E04",
"E09",
"E05",
"E06",
"E07",
"E08",
"E08",
"E07",
"E03",
"E03",
"E01",
"E02",
"E07",
"E05",
"E06",
"E08",
"E12",
"E09",
"E11",
"E07",
"E08",
"E10",
"E13",
"E05",
"E06",
"E04",
"E05",
"E07",
"E06",
"E04",
"E08",
"E05",
"E03",
"E04",
"E02",
"E01",
"E05",
"E05",
"E04",
"E03",
"E02",
"E01",
"E05",
"E02",
"E03",
"E04",
"E09",
"E10",
"E06",
"E05",
"E04",
"E06",
"E05",
"E08",
"E12",
"E08",
"E11",
"E13",
"E09",
"E10",
"E06",
"E07",
"E06",
"E06",
"E06",
"E09",
"E09",
"E08",
"E07",
"E04",
"E05",
"E03",
"E19",
"E22",
"E23",
"E18",
"E18",
"E16",
"E20",
"E24",
"E15",
"E21",
"E03",
"E01",
"E01",
"E06",
"E06",
"E07",
"E04",
"E05",
"E03",
"E04",
"E05",
"E03",
"E05",
"E05",
"E10",
"E02",
"E06",
"E01",
"E08",
"E11",
"E07",
"E04",
"E09",
"E05",
"E05",
"E06",
"E08",
"E03",
"E01",
"E02",
"E04",
"E04",
"E03",
"E03",
"E03",
"E04",
"E09",
"E04",
"E07",
"E05",
"E06",
"E06",
"E06",
"E07",
"E07",
"E04",
"E06",
"E08",
"E04",
"E09",
"E05",
"E07",
"E13",
"E12",
"E11",
"E08",
"E07",
"E09",
"E10",
"E14",
"E07",
"E09",
"E09",
"E08",
"E08",
"E06",
"E04",
"E01",
"E02",
"E01",
"E03",
"E03",
"E02",
"E04",
"E05",
"E04",
"E03",
"E02",
"E01",
"E13",
"E12",
"E08",
"E09",
"E10",
"E05",
"E06",
"E07",
"E05",
"E04",
"E09",
"E11",
"E10",
"E12",
"E13",
"E10",
"E09",
"E08",
"E07",
"E08",
"E09",
"E06",
"E08",
"E07",
"E05",
"E04",
"E05",
"E07",
"E05",
"E06",
"E06",
"E07",
"E05",
"E03",
"E02",
"E05",
"E06",
"E03",
"E04",
"E03",
"E05",
"E04",
"E07",
"E06",
"E03",
"E01",
"E07",
"E05",
"E06",
"E01",
"E07",
"E06",
"E08",
"E05",
"E04",
"E05",
"E04",
"E03",
"E05",
"E07",
"E02",
"E08",
"E06",
"E06",
"E10",
"E08",
"E07",
"E06",
"E09",
"E11",
"E20",
"E06",
"E16",
"E09",
"E08",
"E12",
"E07",
"E18",
"E10",
"E17",
"E19",
"E21",
"E06",
"E08",
"E03",
"E10",
"E09",
"E07",
"E11",
"E07",
"E04",
"E04",
"E06",
"E03",
"E03",
"E07",
"E06",
"E04",
"E03",
"E05",
"E06",
"E08",
"E04",
"E12",
"E11",
"E09",
"E07",
"E07",
"E10",
"E01",
"E07",
"E08",
"E06",
"E03",
"E04",
"E11",
"E10",
"E07",
"E08",
"E03",
"E03",
"E02",
"E05",
"E06",
"E04",
"E03",
"E07",
"E06",
"E04",
"E07",
"E05",
"E06",
"E08",
"E09",
"E03",
"E04",
"E06",
"E02",
"E05",
"E07",
"E03",
"E06",
"E06",
"E02",
"E02",
"E04",
"E04",
"E05",
"E03",
"E02",
"E03",
"E07",
"E01",
"E09",
"E08",
"E06",
"E07",
"E08",
"E09",
"E09",
"E09",
"E08",
"E07",
"E10",
"E13",
"E13",
"E06",
"E03",
"E14",
"E05",
"E11",
"E08",
"E08",
"E06",
"E13",
"E07",
"E11",
"E07",
"E11",
"E13",
"E10",
"E04",
"E14",
"E08",
"E05",
"E06",
"E09",
"E12",
"E15"  ],
"AETERM": [
"APPLICATION SITE ERYTHEMA",
"APPLICATION SITE PRURITUS",
"DIARRHOEA",
"ATRIOVENTRICULAR BLOCK SECOND DEGREE",
"ERYTHEMA",
"ERYTHEMA",
"APPLICATION SITE ERYTHEMA",
"APPLICATION SITE PRURITUS",
"APPLICATION SITE PRURITUS",
"FATIGUE",
"BUNDLE BRANCH BLOCK LEFT",
"HIATUS HERNIA",
"UPPER RESPIRATORY TRACT INFECTION",
"APPLICATION SITE PRURITUS",
"APPLICATION SITE PRURITUS",
"APPLICATION SITE VESICLES",
"ERYTHEMA",
"NASAL CONGESTION",
"PHARYNGOLARYNGEAL PAIN",
"PRURITUS GENERALISED",
"PRURITUS GENERALISED",
"PRURITUS GENERALISED",
"PRURITUS GENERALISED",
"ARTHRALGIA",
"CELLULITIS",
"ERYTHEMA",
"LOCALISED INFECTION",
"MICTURITION URGENCY",
"PRURITUS",
"APPLICATION SITE DERMATITIS",
"APPLICATION SITE ERYTHEMA",
"APPLICATION SITE ERYTHEMA",
"APPLICATION SITE IRRITATION",
"APPLICATION SITE IRRITATION",
"APPLICATION SITE PRURITUS",
"APPLICATION SITE PRURITUS",
"FATIGUE",
"COUGH",
"EYE ALLERGY",
"EYE PRURITUS",
"EYE SWELLING",
"NASAL CONGESTION",
"PRURITUS",
"PYREXIA",
"URINARY TRACT INFECTION",
"APPLICATION SITE ERYTHEMA",
"APPLICATION SITE ERYTHEMA",
"APPLICATION SITE PRURITUS",
"APPLICATION SITE PRURITUS",
"APPLICATION SITE ERYTHEMA",
"APPLICATION SITE ERYTHEMA",
"APPLICATION SITE IRRITATION",
"APPLICATION SITE IRRITATION",
"APPLICATION SITE PAIN",
"APPLICATION SITE PRURITUS",
"APPLICATION SITE PRURITUS",
"APPLICATION SITE VESICLES",
"FATIGUE",
"RASH",
"ACTINIC KERATOSIS",
"APPLICATION SITE ERYTHEMA",
"APPLICATION SITE PRURITUS",
"CALCULUS URETHRAL",
"DEPRESSED MOOD",
"DYSPEPSIA",
"EPISTAXIS",
"FLANK PAIN",
"LOWER RESPIRATORY TRACT INFECTION",
"INCREASED APPETITE",
"APPLICATION SITE ERYTHEMA",
"APPLICATION SITE PRURITUS",
"APPLICATION SITE VESICLES",
"HEADACHE",
"MICTURITION URGENCY",
"NASOPHARYNGITIS",
"VOMITING",
"AGITATION",
"APPLICATION SITE URTICARIA",
"ERYTHEMA",
"ERYTHEMA",
"PRURITUS",
"PRURITUS",
"URTICARIA",
"URTICARIA",
"URTICARIA",
"APPLICATION SITE ERYTHEMA",
"APPLICATION SITE IRRITATION",
"APPLICATION SITE PRURITUS",
"COUGH",
"COUGH",
"ERYTHEMA",
"MUSCULAR WEAKNESS",
"NASAL MUCOSA BIOPSY",
"PNEUMONIA",
"SECRETION DISCHARGE",
"EYE LASER SURGERY",
"APPLICATION SITE ERYTHEMA",
"APPLICATION SITE PRURITUS",
"CONFUSIONAL STATE",
"DYSPNOEA",
"INCONTINENCE",
"JOINT DISLOCATION",
"SHOULDER PAIN",
"SKIN LACERATION",
"SUDDEN DEATH",
"APPLICATION SITE IRRITATION",
"ERYTHEMA",
"ERYTHEMA",
"FATIGUE",
"HORDEOLUM",
"PRURITUS",
"SKIN ODOUR ABNORMAL",
"UPPER RESPIRATORY TRACT INFECTION",
"COUGH",
"ERYTHEMA",
"NASAL CONGESTION",
"NAUSEA",
"PAROSMIA",
"PRURITUS",
"SALIVARY HYPERSECRETION",
"VOMITING",
"APPLICATION SITE ERYTHEMA",
"APPLICATION SITE PRURITUS",
"RHINORRHOEA",
"SALIVARY HYPERSECRETION",
"APPLICATION SITE ERYTHEMA",
"APPLICATION SITE ERYTHEMA",
"APPLICATION SITE PRURITUS",
"APPLICATION SITE PRURITUS",
"APPLICATION SITE PRURITUS",
"RASH ERYTHEMATOUS",
"APPLICATION SITE ERYTHEMA",
"APPLICATION SITE PERSPIRATION",
"APPLICATION SITE PRURITUS",
"CONTUSION",
"DIZZINESS",
"DIZZINESS",
"EPISTAXIS",
"FEELING ABNORMAL",
"HEADACHE",
"HYPERHIDROSIS",
"LIBIDO DECREASED",
"LISTLESS",
"MALAISE",
"MALAISE",
"MYALGIA",
"NASAL CONGESTION",
"PAIN",
"PHARYNGOLARYNGEAL PAIN",
"PRODUCTIVE COUGH",
"RESPIRATORY TRACT CONGESTION",
"RHINITIS",
"STOMACH DISCOMFORT",
"APPLICATION SITE ERYTHEMA",
"APPLICATION SITE PRURITUS",
"APPLICATION SITE URTICARIA",
"CYST",
"DEPRESSED MOOD",
"DEPRESSED MOOD",
"DYSPHONIA",
"FATIGUE",
"ONYCHOMYCOSIS",
"APPLICATION SITE ERYTHEMA",
"APPLICATION SITE PRURITUS",
"APPLICATION SITE VESICLES",
"APPLICATION SITE ERYTHEMA",
"APPLICATION SITE ERYTHEMA",
"APPLICATION SITE IRRITATION",
"APPLICATION SITE PRURITUS",
"APPLICATION SITE PRURITUS",
"APPLICATION SITE ERYTHEMA",
"APPLICATION SITE PRURITUS",
"APPLICATION SITE VESICLES",
"APPLICATION SITE PRURITUS",
"BACK PAIN",
"HEADACHE",
"HEADACHE",
"NAUSEA",
"APPLICATION SITE ERYTHEMA",
"APPLICATION SITE ERYTHEMA",
"APPLICATION SITE IRRITATION",
"APPLICATION SITE IRRITATION",
"APPLICATION SITE PAIN",
"APPLICATION SITE PRURITUS",
"APPLICATION SITE PRURITUS",
"APPLICATION SITE PRURITUS",
"APPLICATION SITE VESICLES",
"CHEST DISCOMFORT",
"COUGH",
"HEADACHE",
"DIARRHOEA",
"HYPERHIDROSIS",
"UPPER RESPIRATORY TRACT INFECTION",
"DIARRHOEA",
"MICTURITION URGENCY",
"UPPER RESPIRATORY TRACT INFECTION",
"UPPER RESPIRATORY TRACT INFECTION",
"APPLICATION SITE PRURITUS",
"APPLICATION SITE ERYTHEMA",
"APPLICATION SITE ERYTHEMA",
"APPLICATION SITE IRRITATION",
"APPLICATION SITE PRURITUS",
"APPLICATION SITE PRURITUS",
"APPLICATION SITE VESICLES",
"PARAESTHESIA",
"SALIVARY HYPERSECRETION",
"APPLICATION SITE IRRITATION",
"NEUTROPHIL COUNT INCREASED",
"RECTAL HAEMORRHAGE",
"SKIN IRRITATION",
"URINE ANALYSIS ABNORMAL",
"WHITE BLOOD CELL COUNT INCREASED",
"DIARRHOEA",
"INSOMNIA",
"APPLICATION SITE DERMATITIS",
"APPLICATION SITE PRURITUS",
"APPLICATION SITE PRURITUS",
"BENIGN PROSTATIC HYPERPLASIA",
"BIOPSY PROSTATE",
"HYPERCHOLESTEROLAEMIA",
"HYPERHIDROSIS",
"APPLICATION SITE IRRITATION",
"APPLICATION SITE IRRITATION",
"APPLICATION SITE IRRITATION",
"CHILLS",
"APPLICATION SITE IRRITATION",
"APPLICATION SITE IRRITATION",
"CATARACT OPERATION",
"OEDEMA PERIPHERAL",
"OEDEMA PERIPHERAL",
"UPPER RESPIRATORY TRACT INFECTION",
"APPLICATION SITE IRRITATION",
"APPLICATION SITE IRRITATION",
"PRURITUS",
"PRURITUS",
"ATRIOVENTRICULAR BLOCK SECOND DEGREE",
"APPLICATION SITE ERYTHEMA",
"APPLICATION SITE ERYTHEMA",
"SOMNOLENCE",
"SOMNOLENCE",
"DECREASED APPETITE",
"DECREASED APPETITE",
"DISORIENTATION",
"APPLICATION SITE DERMATITIS",
"APPLICATION SITE DERMATITIS",
"DIZZINESS",
"DIZZINESS",
"UPPER RESPIRATORY TRACT INFECTION",
"ARTHRITIS",
"GLAUCOMA",
"HYPOTENSION",
"HYPOTENSION",
"MYOCARDIAL INFARCTION",
"TACHYCARDIA",
"TACHYCARDIA",
"UPPER RESPIRATORY TRACT INFECTION",
"ATRIOVENTRICULAR BLOCK SECOND DEGREE",
"CHEST DISCOMFORT",
"DIARRHOEA",
"VOMITING",
"WEIGHT DECREASED",
"APPLICATION SITE IRRITATION",
"APPLICATION SITE IRRITATION",
"HYPERHIDROSIS",
"SINUS BRADYCARDIA",
"TRANSIENT ISCHAEMIC ATTACK",
"DIZZINESS",
"FATIGUE",
"MALAISE",
"NAUSEA",
"RASH",
"ARTHRALGIA",
"CONTUSION",
"CYSTITIS",
"DIARRHOEA",
"EXCORIATION",
"SKIN LACERATION",
"VOMITING",
"CARDIAC DISORDER",
"INFLUENZA",
"MYOCARDIAL INFARCTION",
"PRURITUS",
"RASH",
"VENTRICULAR SEPTAL DEFECT",
"ELECTROCARDIOGRAM ST SEGMENT DEPRESSION",
"PALPITATIONS",
"VERTIGO",
"WOLFF-PARKINSON-WHITE SYNDROME",
"ABDOMINAL DISCOMFORT",
"APPLICATION SITE IRRITATION",
"APPLICATION SITE PRURITUS",
"CHILLS",
"DIARRHOEA",
"DIZZINESS",
"HYPERHIDROSIS",
"MALAISE",
"RASH",
"SINUS BRADYCARDIA",
"ERYTHEMA",
"PRURITUS",
"BLOOD GLUCOSE INCREASED",
"PRURITUS",
"RASH",
"ERYTHEMA",
"INFLUENZA",
"OEDEMA",
"PRURITUS",
"RASH",
"NASOPHARYNGITIS",
"PRURITUS",
"PRURITUS",
"RASH",
"RASH",
"RASH",
"RASH",
"INFLUENZA",
"OEDEMA PERIPHERAL",
"BLOOD GLUCOSE INCREASED",
"DYSPNOEA",
"RASH",
"ATRIAL FIBRILLATION",
"ATRIAL FLUTTER",
"BLISTER",
"ERYTHEMA",
"ERYTHEMA",
"ERYTHEMA",
"HYPERHIDROSIS",
"PRURITUS",
"SEASONAL ALLERGY",
"OEDEMA",
"PRURITUS",
"RASH",
"VIRAL INFECTION",
"PRURITUS",
"RASH",
"BURNING SENSATION",
"PRURITUS",
"RASH",
"RASH",
"FLATULENCE",
"POLLAKIURIA",
"HEADACHE",
"PARKINSON'S DISEASE",
"COMPLETED SUICIDE",
"RASH",
"ERYTHEMA",
"HYPERBILIRUBINAEMIA",
"DYSPEPSIA",
"PRURITUS",
"EXCORIATION",
"PRURITUS",
"PRURITUS",
"ERYTHEMA",
"PRURITUS",
"PRURITUS",
"RASH",
"RASH",
"RASH PRURITIC",
"WOUND HAEMORRHAGE",
"ELECTROCARDIOGRAM ST SEGMENT DEPRESSION",
"NAUSEA",
"VENTRICULAR HYPERTROPHY",
"VOMITING",
"ABDOMINAL PAIN",
"COLON CANCER",
"PRURITUS",
"ANXIETY",
"RASH ERYTHEMATOUS",
"ANXIETY",
"ANXIETY",
"DIARRHOEA",
"EXCORIATION",
"IRRITABILITY",
"PRURITUS",
"SYNCOPE",
"SYNCOPE",
"ERYTHEMA",
"ERYTHEMA",
"EXCORIATION",
"PRURITUS",
"PRURITUS",
"BLOOD CREATINE PHOSPHOKINASE INCREASED",
"CONJUNCTIVITIS",
"POSTNASAL DRIP",
"SINUS ARRHYTHMIA",
"DIZZINESS",
"HEADACHE",
"STUPOR",
"TRANSIENT ISCHAEMIC ATTACK",
"VISION BLURRED",
"APPLICATION SITE VESICLES",
"DIZZINESS",
"MYOCARDIAL INFARCTION",
"SINUS BRADYCARDIA",
"DIZZINESS",
"HEADACHE",
"HEART RATE IRREGULAR",
"HEART RATE IRREGULAR",
"AGITATION",
"ERYTHEMA",
"ALCOHOL USE",
"APPLICATION SITE PRURITUS",
"ATRIAL FIBRILLATION",
"CYSTITIS",
"DIZZINESS",
"FLANK PAIN",
"NASOPHARYNGITIS",
"VENTRICULAR SEPTAL DEFECT",
"ATRIAL FIBRILLATION",
"APPLICATION SITE ERYTHEMA",
"APPLICATION SITE PRURITUS",
"APPLICATION SITE SWELLING",
"CONJUNCTIVITIS",
"COUGH",
"DIZZINESS",
"HEART RATE INCREASED",
"APPLICATION SITE DERMATITIS",
"COUGH",
"DIARRHOEA",
"HEADACHE",
"HOT FLUSH",
"MUSCLE SPASMS",
"NASOPHARYNGITIS",
"VENTRICULAR EXTRASYSTOLES",
"ABDOMINAL PAIN",
"APPLICATION SITE PRURITUS",
"CONSTIPATION",
"MYOCARDIAL INFARCTION",
"APPLICATION SITE PRURITUS",
"APPLICATION SITE VESICLES",
"ATRIAL HYPERTROPHY",
"PAIN IN EXTREMITY",
"APPLICATION SITE PRURITUS",
"APPLICATION SITE SWELLING",
"SINUS BRADYCARDIA",
"APPLICATION SITE ERYTHEMA",
"HEADACHE",
"APPLICATION SITE ERYTHEMA",
"APPLICATION SITE PRURITUS",
"APPLICATION SITE PRURITUS",
"DIZZINESS",
"DIZZINESS",
"APPLICATION SITE ERYTHEMA",
"APPLICATION SITE SWELLING",
"ERYTHEMA",
"PRURITUS",
"APPLICATION SITE PRURITUS",
"MYOCARDIAL INFARCTION",
"DIZZINESS",
"HYPOTENSION",
"ATRIOVENTRICULAR BLOCK SECOND DEGREE",
"OEDEMA PERIPHERAL",
"APPLICATION SITE ERYTHEMA",
"APPLICATION SITE ERYTHEMA",
"APPLICATION SITE PRURITUS",
"APPLICATION SITE PRURITUS",
"APPLICATION SITE WARMTH",
"APPLICATION SITE WARMTH",
"EPISTAXIS",
"APPLICATION SITE DERMATITIS",
"APPLICATION SITE DERMATITIS",
"DIARRHOEA",
"ABDOMINAL PAIN",
"APPLICATION SITE DERMATITIS",
"APPLICATION SITE PRURITUS",
"DIARRHOEA",
"APPLICATION SITE ERYTHEMA",
"COUGH",
"MUSCLE SPASMS",
"MYOCARDIAL INFARCTION",
"MYOCARDIAL INFARCTION",
"MYOCARDIAL INFARCTION",
"PHARYNGEAL ERYTHEMA",
"PRURITUS",
"SINUS BRADYCARDIA",
"SINUS BRADYCARDIA",
"OEDEMA PERIPHERAL",
"RASH",
"APPLICATION SITE DERMATITIS",
"RASH",
"ACROCHORDON EXCISION",
"APPLICATION SITE DERMATITIS",
"APPLICATION SITE DERMATITIS",
"APPLICATION SITE PRURITUS",
"APPLICATION SITE PRURITUS",
"APPLICATION SITE VESICLES",
"NASOPHARYNGITIS",
"APPLICATION SITE DERMATITIS",
"APPLICATION SITE DERMATITIS",
"APPLICATION SITE PRURITUS",
"APPLICATION SITE PRURITUS",
"APPLICATION SITE VESICLES",
"DIZZINESS",
"PRURITUS",
"RASH",
"SKIN IRRITATION",
"APPLICATION SITE DERMATITIS",
"APPLICATION SITE DERMATITIS",
"COUGH",
"DIZZINESS",
"DIZZINESS",
"DIZZINESS",
"ELECTROCARDIOGRAM T WAVE INVERSION",
"HEADACHE",
"PRURITUS",
"APPLICATION SITE DERMATITIS",
"APPLICATION SITE DISCHARGE",
"APPLICATION SITE PRURITUS",
"COUGH",
"DIARRHOEA",
"HIP FRACTURE",
"SKIN LESION EXCISION",
"UPPER RESPIRATORY TRACT INFECTION",
"BENIGN PROSTATIC HYPERPLASIA",
"BENIGN PROSTATIC HYPERPLASIA",
"BLOOD URINE PRESENT",
"CYSTOSCOPY",
"DEHYDRATION",
"HYPOTENSION",
"LOCALISED INFECTION",
"ORTHOSTATIC HYPOTENSION",
"PYREXIA",
"APPLICATION SITE DERMATITIS",
"APPLICATION SITE PRURITUS",
"HEMIANOPIA HOMONYMOUS",
"SINUS BRADYCARDIA",
"DIABETES MELLITUS",
"APPLICATION SITE IRRITATION",
"APPLICATION SITE PRURITUS",
"APPLICATION SITE PRURITUS",
"DRUG ERUPTION",
"RASH",
"RASH",
"ALLERGIC GRANULOMATOUS ANGIITIS",
"APPLICATION SITE PRURITUS",
"BIOPSY",
"DIZZINESS",
"FEELING COLD",
"NASAL CONGESTION",
"NIGHTMARE",
"RASH MACULO-PAPULAR",
"RASH MACULO-PAPULAR",
"RASH PAPULAR",
"VOMITING",
"APPLICATION SITE DERMATITIS",
"ELECTROCARDIOGRAM ST SEGMENT DEPRESSION",
"APPLICATION SITE BLEEDING",
"APPLICATION SITE DERMATITIS",
"APPLICATION SITE PRURITUS",
"COUGH",
"SYNCOPE",
"VOMITING",
"DIZZINESS",
"PYREXIA",
"BLOOD ALKALINE PHOSPHATASE INCREASED",
"HEADACHE",
"SYNCOPE",
"TRANSIENT ISCHAEMIC ATTACK",
"CONTUSION",
"DIZZINESS",
"DIZZINESS",
"FACIAL BONES FRACTURE",
"FALL",
"NEPHROLITHIASIS",
"PRURITUS",
"SALIVARY HYPERSECRETION",
"SINUS BRADYCARDIA",
"SKIN IRRITATION",
"URINARY TRACT INFECTION",
"CHEST PAIN",
"PRURITUS",
"HAEMOPTYSIS",
"RALES",
"ERYTHEMA",
"NASOPHARYNGITIS",
"PRURITUS",
"RASH",
"SKIN EXFOLIATION",
"SKIN IRRITATION",
"VOMITING",
"PRURITUS",
"RASH",
"APPLICATION SITE INDURATION",
"APPLICATION SITE PRURITUS",
"APPLICATION SITE PRURITUS",
"FALL",
"FALL",
"INSOMNIA",
"NASAL CONGESTION",
"ERYTHEMA",
"GASTROINTESTINAL HAEMORRHAGE",
"HIP FRACTURE",
"PRURITUS",
"RASH",
"SUPRAVENTRICULAR EXTRASYSTOLES",
"AGITATION",
"APPLICATION SITE DERMATITIS",
"ARTHRITIS",
"ARTHRITIS",
"SKIN IRRITATION",
"MYOCARDIAL INFARCTION",
"ERYTHEMA",
"HEADACHE",
"PRURITUS",
"VERTIGO",
"DIZZINESS",
"HEADACHE",
"MYOCARDIAL INFARCTION",
"NAUSEA",
"SYNCOPE VASOVAGAL",
"SKIN IRRITATION",
"SKIN IRRITATION",
"COMPLEX PARTIAL SEIZURES",
"FALL",
"SKIN LACERATION",
"SYNCOPE",
"SYNCOPE",
"ATRIOVENTRICULAR BLOCK FIRST DEGREE",
"SINUS BRADYCARDIA",
"APPLICATION SITE IRRITATION",
"APPLICATION SITE PRURITUS",
"COUGH",
"SHOULDER PAIN",
"ERYTHEMA",
"PRURITUS",
"PRURITUS",
"PRURITUS",
"CHILLS",
"CHILLS",
"CHILLS",
"COLD SWEAT",
"COLD SWEAT",
"COLD SWEAT",
"DIARRHOEA",
"PRURITUS",
"RASH",
"ERYTHEMA",
"PRURITUS",
"ATRIAL FIBRILLATION",
"CARDIAC FAILURE CONGESTIVE",
"DYSPNOEA",
"HYPONATRAEMIA",
"MYOCARDIAL INFARCTION",
"APPLICATION SITE ERYTHEMA",
"BURNING SENSATION",
"RASH",
"SOMNOLENCE",
"VOMITING",
"APPLICATION SITE IRRITATION",
"BLISTER",
"ERYTHEMA",
"PRURITUS",
"NASOPHARYNGITIS",
"ERYTHEMA",
"HEADACHE",
"PRURITUS",
"RASH",
"ERYTHEMA",
"PRURITUS",
"APPLICATION SITE DESQUAMATION",
"PRURITUS",
"RASH",
"DELUSION",
"HIP FRACTURE",
"PSYCHOMOTOR HYPERACTIVITY",
"ATRIAL FIBRILLATION",
"ATRIOVENTRICULAR BLOCK FIRST DEGREE",
"BLISTER",
"ELECTROCARDIOGRAM T WAVE AMPLITUDE DECREASED",
"PRURITUS",
"RASH",
"SUPRAVENTRICULAR TACHYCARDIA",
"ERYTHEMA",
"NASOPHARYNGITIS",
"APPLICATION SITE DERMATITIS",
"APPLICATION SITE DERMATITIS",
"APPLICATION SITE PRURITUS",
"APPLICATION SITE PRURITUS",
"APPLICATION SITE URTICARIA",
"NASOPHARYNGITIS",
"EAR INFECTION",
"GLOSSITIS",
"HEADACHE",
"APPLICATION SITE DERMATITIS",
"CERUMEN IMPACTION",
"CONJUNCTIVAL HAEMORRHAGE",
"NASOPHARYNGITIS",
"NASOPHARYNGITIS",
"PARAESTHESIA ORAL",
"RASH PRURITIC",
"SUPRAVENTRICULAR EXTRASYSTOLES",
"TINNITUS",
"VENTRICULAR EXTRASYSTOLES",
"ASTHENIA",
"HYPERTENSION",
"HYPERTENSION",
"APPLICATION SITE ERYTHEMA",
"APPLICATION SITE ERYTHEMA",
"CATARACT OPERATION",
"NAUSEA",
"VOMITING",
"APPLICATION SITE PRURITUS",
"BACK PAIN",
"DELIRIUM",
"RASH PRURITIC",
"ASTHENIA",
"ASTHENIA",
"CERVICITIS",
"DYSPEPSIA",
"DYSPEPSIA",
"DYSURIA",
"GASTROENTERITIS VIRAL",
"GASTROOESOPHAGEAL REFLUX DISEASE",
"PELVIC PAIN",
"URINARY TRACT INFECTION",
"VAGINAL MYCOSIS",
"ABDOMINAL PAIN",
"ABDOMINAL PAIN",
"APPLICATION SITE PRURITUS",
"DIZZINESS",
"APPLICATION SITE DERMATITIS",
"APPLICATION SITE ERYTHEMA",
"COUGH",
"RASH",
"RASH",
"SHOULDER PAIN",
"SHOULDER PAIN",
"APPLICATION SITE IRRITATION",
"NAUSEA",
"BRONCHITIS",
"BUNDLE BRANCH BLOCK RIGHT",
"ELECTROCARDIOGRAM ST SEGMENT DEPRESSION",
"ELECTROCARDIOGRAM T WAVE INVERSION",
"SUPRAVENTRICULAR EXTRASYSTOLES",
"APPLICATION SITE ERYTHEMA",
"APPLICATION SITE ERYTHEMA",
"APPLICATION SITE PRURITUS",
"APPLICATION SITE PRURITUS",
"SKIN IRRITATION",
"APPLICATION SITE ERYTHEMA",
"APPLICATION SITE PRURITUS",
"DIARRHOEA",
"DYSURIA",
"HYPERHIDROSIS",
"SOMNOLENCE",
"ARTHRALGIA",
"BACK PAIN",
"COUGH",
"DIARRHOEA",
"DIZZINESS",
"ERYTHEMA",
"NASOPHARYNGITIS",
"SINUS BRADYCARDIA",
"EAR PAIN",
"ERYTHEMA",
"ERYTHEMA",
"PRURITUS",
"PRURITUS",
"SKIN IRRITATION",
"ATRIOVENTRICULAR BLOCK SECOND DEGREE",
"DERMATITIS CONTACT",
"SINUS BRADYCARDIA",
"NEPHROLITHIASIS",
"SINUS BRADYCARDIA",
"APPLICATION SITE REACTION",
"NAUSEA",
"SINUS BRADYCARDIA",
"CONFUSIONAL STATE",
"DIZZINESS",
"HYPERHIDROSIS",
"PALPITATIONS",
"SINUS BRADYCARDIA",
"EMPHYSEMA",
"NASOPHARYNGITIS",
"EAR INFECTION",
"EAR INFECTION",
"ELECTROCARDIOGRAM T WAVE AMPLITUDE DECREASED",
"ELECTROCARDIOGRAM T WAVE INVERSION",
"HYPERHIDROSIS",
"PRURITUS",
"CONFUSIONAL STATE",
"DIARRHOEA",
"FATIGUE",
"HYPERHIDROSIS",
"LETHARGY",
"PRURITUS",
"RESTLESSNESS",
"FATIGUE",
"HYPERSOMNIA",
"SYNCOPE",
"ATRIAL FLUTTER",
"BUNDLE BRANCH BLOCK RIGHT",
"VENTRICULAR SEPTAL DEFECT",
"BLISTER",
"BLISTER",
"ERYTHEMA",
"PRURITUS",
"ELECTROCARDIOGRAM ST SEGMENT DEPRESSION",
"PRURITUS",
"ERYTHEMA",
"MALIGNANT FIBROUS HISTIOCYTOMA",
"PRURITUS",
"ERYTHEMA",
"PRURITUS",
"UPPER RESPIRATORY TRACT INFECTION",
"ERYTHEMA",
"PRURITUS",
"BLISTER",
"HYPERSENSITIVITY",
"PRURITUS",
"SWELLING",
"ERYTHEMA",
"DELUSION",
"HALLUCINATION",
"PROSTATE CANCER",
"PRURITUS",
"BLOOD CHOLESTEROL INCREASED",
"PRURITUS",
"BLISTER",
"ERYTHEMA",
"PRURITUS",
"ERYTHEMA",
"ABDOMINAL PAIN",
"ERYTHEMA",
"ULCER",
"ERYTHEMA",
"PRURITUS",
"COGNITIVE DISORDER",
"PRURITUS",
"ERYTHEMA",
"HEADACHE",
"HEADACHE",
"PRURITUS",
"URTICARIA",
"VISION BLURRED",
"ERYTHEMA",
"CHEST PAIN",
"ELECTROCARDIOGRAM T WAVE INVERSION",
"ERYTHEMA",
"HYPERHIDROSIS",
"PRURITUS",
"ANXIETY",
"BACK PAIN",
"COUGH",
"DIARRHOEA",
"ENURESIS",
"FATIGUE",
"IRRITABILITY",
"RHINORRHOEA",
"SINUS BRADYCARDIA",
"SKIN IRRITATION",
"SKIN IRRITATION",
"SKIN IRRITATION",
"WOUND",
"CONFUSIONAL STATE",
"HYPERHIDROSIS",
"INCREASED APPETITE",
"INSOMNIA",
"PRURITUS GENERALISED",
"SKIN IRRITATION",
"VENTRICULAR EXTRASYSTOLES",
"INSOMNIA",
"PRURITUS",
"PRURITUS",
"RASH",
"SKIN IRRITATION",
"SKIN IRRITATION",
"ALOPECIA",
"SKIN IRRITATION",
"FATIGUE",
"NASAL CONGESTION",
"NAUSEA",
"VOMITING",
"APPLICATION SITE PERSPIRATION",
"DIZZINESS",
"DIZZINESS",
"NAUSEA",
"OEDEMA PERIPHERAL",
"SKIN IRRITATION",
"SKIN IRRITATION",
"VOMITING",
"ANXIETY",
"PAIN",
"PAIN",
"RASH",
"SINUS BRADYCARDIA",
"SKIN IRRITATION",
"AGITATION",
"INFLAMMATION",
"SYNCOPE",
"SYNCOPE",
"APPLICATION SITE IRRITATION",
"APPLICATION SITE IRRITATION",
"CONFUSIONAL STATE",
"HYPERHIDROSIS",
"MYOCARDIAL INFARCTION",
"SINUS BRADYCARDIA",
"VOMITING",
"DIARRHOEA",
"SOMNOLENCE",
"APPLICATION SITE IRRITATION",
"APPLICATION SITE IRRITATION",
"BRADYCARDIA",
"BRADYCARDIA",
"FOOD CRAVING",
"SINUS BRADYCARDIA",
"UPPER RESPIRATORY TRACT INFECTION",
"AGITATION",
"BODY TEMPERATURE INCREASED",
"DIZZINESS",
"HYPERHIDROSIS",
"HYPERTENSION",
"SYNCOPE",
"APPLICATION SITE PRURITUS",
"APPLICATION SITE PRURITUS",
"BALANCE DISORDER",
"BALANCE DISORDER",
"CONTUSION",
"CONTUSION",
"COORDINATION ABNORMAL",
"FALL",
"APPLICATION SITE DISCOLOURATION",
"APPLICATION SITE PRURITUS",
"ARTHRALGIA",
"ARTHRALGIA",
"DYSPHAGIA",
"FOOD CRAVING",
"SOMNOLENCE",
"APPLICATION SITE DERMATITIS",
"APPLICATION SITE IRRITATION",
"APPLICATION SITE IRRITATION",
"APPLICATION SITE IRRITATION",
"APPLICATION SITE DERMATITIS",
"APPLICATION SITE DERMATITIS",
"APPLICATION SITE DERMATITIS",
"APPLICATION SITE DERMATITIS",
"APPLICATION SITE REACTION",
"APPLICATION SITE REACTION",
"CONFUSIONAL STATE",
"DERMATITIS ATOPIC",
"HYPERTENSION",
"SKIN ULCER",
"SOMNOLENCE",
"APPLICATION SITE IRRITATION",
"APPLICATION SITE IRRITATION",
"FATIGUE",
"HALLUCINATION",
"NAUSEA",
"PARTIAL SEIZURES WITH SECONDARY GENERALISATION",
"AMNESIA",
"APPLICATION SITE DERMATITIS",
"APPLICATION SITE DERMATITIS",
"APPLICATION SITE PRURITUS",
"BACK PAIN",
"DECREASED APPETITE",
"LETHARGY",
"NAUSEA",
"NAUSEA",
"NAUSEA",
"NAUSEA",
"NAUSEA"  ],
"AELLT": [
"APPLICATION SITE REDNESS",
"APPLICATION SITE ITCHING",
"DIARRHEA",
"AV BLOCK SECOND DEGREE",
"LOCALIZED ERYTHEMA",
"ERYTHEMA",
"APPLICATION SITE ERYTHEMA",
"APPLICATION SITE ITCHING",
"APPLICATION SITE ITCHING",
"FATIGUE",
"LEFT BUNDLE BRANCH BLOCK",
"HERNIA HIATAL",
"UPPER RESPIRATORY INFECTION",
"APPLICATION SITE ITCHING",
"APPLICATION SITE ITCHING",
"APPLICATION SITE BLISTER",
"ERYTHEMA",
"NASAL CONGESTION",
"SORE THROAT",
"GENERALIZED PRURITUS",
"GENERALIZED PRURITUS",
"GENERALIZED PRURITUS",
"GENERALIZED PRURITUS",
"GENERALIZED JOINT PAIN",
"CELLULITIS OF LEG",
"ERYTHEMA",
"LOCALIZED INFECTION",
"URINARY URGENCY",
"ITCHING",
"APPLICATION SITE RASH",
"APPLICATION SITE REDNESS",
"APPLICATION SITE REDNESS",
"APPLICATION SITE BURNING",
"APPLICATION SITE BURNING",
"APPLICATION SITE ITCHING",
"APPLICATION SITE ITCHING",
"FATIGUE",
"COUGH",
"EYE ALLERGY",
"EYE ITCHING",
"EYES SWOLLEN",
"NASAL CONGESTION",
"ITCHING BOTH HANDS",
"FEVER",
"URINARY TRACT INFECTION",
"APPLICATION SITE REDNESS",
"APPLICATION SITE REDNESS",
"APPLICATION SITE ITCHING",
"APPLICATION SITE ITCHING",
"APPLICATION SITE ERYTHEMA",
"APPLICATION SITE ERYTHEMA",
"APPLICATION SITE IRRITATION",
"APPLICATION SITE BURNING",
"APPLICATION SITE PAIN",
"APPLICATION SITE ITCHING",
"APPLICATION SITE ITCHING",
"APPLICATION SITE VESICLES",
"FATIGUE",
"RASH",
"ACTINIC KERATOSIS",
"APPLICATION SITE REDNESS",
"APPLICATION SITE ITCHING",
"URETHRAL CALCULUS",
"DEPRESSED MOOD",
"INDIGESTION",
"NOSE BLEED",
"FLANK PAIN",
"CHEST COLD",
"INCREASED APPETITE",
"APPLICATION SITE ERYTHEMA",
"APPLICATION SITE ITCHING",
"APPLICATION SITE BLISTER",
"HEADACHE",
"URINARY URGENCY",
"COLD",
"VOMITING",
"AGITATION",
"APPLICATION SITE URTICARIA",
"ERYTHEMA",
"ERYTHEMA",
"ITCHING",
"ITCHING",
"WELTS",
"WELTS",
"WELTS",
"APPLICATION SITE REDNESS",
"APPLICATION SITE BURNING",
"APPLICATION SITE ITCHING",
"COUGH",
"COUGH",
"ERYTHEMA FACIAL",
"MUSCULAR WEAKNESS",
"NASAL MUCOSA BIOPSY",
"PNEUMONIA",
"SECRETION DISCHARGE",
"EYE LASER SURGERY",
"APPLICATION SITE REDNESS",
"APPLICATION SITE ITCHING",
"CONFUSION",
"SHORTNESS OF BREATH",
"INCONTINENCE",
"SHOULDER DISLOCATION",
"SHOULDER PAIN",
"LACERATION OF FACE",
"SUDDEN DEATH",
"APPLICATION SITE IRRITATION",
"ERYTHEMA",
"ERYTHEMA",
"FATIGUE",
"STYE",
"ITCHING",
"SKIN ODOR ABNORMAL",
"UPPER RESPIRATORY INFECTION",
"COUGH",
"ERYTHEMA",
"NASAL CONGESTION",
"NAUSEA",
"STRANGE SMELL SENSATION",
"ITCHING",
"HYPERSALIVATION",
"VOMITING",
"APPLICATION SITE REDNESS",
"APPLICATION SITE ITCHING",
"RUNNY NOSE",
"INCREASED SALIVATION",
"APPLICATION SITE REDNESS",
"APPLICATION SITE REDNESS",
"APPLICATION SITE ITCHING",
"APPLICATION SITE ITCHING",
"APPLICATION SITE ITCHING",
"ERYTHEMATOUS RASH",
"APPLICATION SITE REDNESS",
"APPLICATION SITE PERSPIRATION",
"APPLICATION SITE ITCHING",
"BRUISE",
"DIZZY",
"LIGHTHEADEDNESS",
"NOSE BLEED",
"FOGGY FEELING IN HEAD",
"HEADACHE",
"PERSPIRATION EXCESSIVE",
"LIBIDO DECREASED",
"LISTLESSNESS",
"MALAISE",
"MALAISE",
"MYALGIA",
"NASAL CONGESTION",
"STINGING",
"SORE THROAT",
"PRODUCTIVE COUGH",
"RESPIRATORY TRACT CONGESTION",
"CORYZA",
"STOMACH UPSET",
"APPLICATION SITE REDNESS",
"APPLICATION SITE ITCHING",
"APPLICATION SITE URTICARIA",
"CYST",
"DEPRESSED MOOD",
"DEPRESSED MOOD",
"HOARSENESS",
"TIREDNESS",
"ONYCHOMYCOSIS",
"APPLICATION SITE ERYTHEMA",
"APPLICATION SITE ITCHING",
"APPLICATION SITE BLISTER",
"APPLICATION SITE REDNESS",
"APPLICATION SITE REDNESS",
"APPLICATION SITE BURNING",
"APPLICATION SITE ITCHING",
"APPLICATION SITE ITCHING",
"APPLICATION SITE ERYTHEMA",
"APPLICATION SITE ITCHING",
"APPLICATION SITE BLISTER",
"APPLICATION SITE ITCHING",
"BACKACHE",
"HEADACHE",
"HEADACHE",
"NAUSEA",
"APPLICATION SITE ERYTHEMA",
"APPLICATION SITE ERYTHEMA",
"APPLICATION SITE BURNING",
"APPLICATION SITE BURNING",
"APPLICATION SITE PAIN",
"APPLICATION SITE ITCHING",
"APPLICATION SITE ITCHING",
"APPLICATION SITE ITCHING",
"APPLICATION SITE BLISTER",
"CHEST PRESSURE",
"COUGH",
"FULLNESS HEAD",
"DIARRHEA",
"SWEATING",
"UPPER RESPIRATORY INFECTION",
"DIARRHEA",
"URINARY URGENCY",
"UPPER RESPIRATORY INFECTION",
"UPPER RESPIRATORY INFECTION",
"APPLICATION SITE ITCHING",
"APPLICATION SITE ERYTHEMA",
"APPLICATION SITE ERYTHEMA",
"APPLICATION SITE BURNING",
"APPLICATION SITE ITCHING",
"APPLICATION SITE ITCHING",
"APPLICATION SITE BLISTER",
"TINGLING",
"HYPERSALIVATION",
"APPLICATION SITE IRRITATION",
"NEUTROPHIL COUNT INCREASED",
"RECTAL BLEEDING",
"SKIN IRRITATION",
"URINE ANALYSIS ABNORMAL",
"WBC INCREASED",
"DIARRHEA",
"INSOMNIA",
"APPLICATION SITE RASH",
"APPLICATION SITE ITCHING",
"APPLICATION SITE ITCHING",
"BENIGN PROSTATIC HYPERTROPHY",
"BIOPSY OF PROSTATE",
"HYPERCHOLESTEROLEMIA",
"SWEATING",
"APPLICATION SITE IRRITATION",
"APPLICATION SITE IRRITATION",
"APPLICATION SITE IRRITATION",
"CHILLS",
"APPLICATION SITE IRRITATION",
"APPLICATION SITE IRRITATION",
"CATARACT EXTRACTION",
"LEG EDEMA",
"LEG EDEMA",
"UPPER RESPIRATORY INFECTION",
"APPLICATION SITE IRRITATION",
"APPLICATION SITE IRRITATION",
"ITCHING",
"ITCHING",
"HEART BLOCK SECOND DEGREE",
"APPLICATION SITE REDNESS",
"APPLICATION SITE REDNESS",
"DROWSINESS",
"DROWSINESS",
"DECREASED APPETITE",
"DECREASED APPETITE",
"DISORIENTATION",
"APPLICATION SITE RASH",
"APPLICATION SITE RASH",
"DIZZINESS",
"DIZZINESS",
"UPPER RESPIRATORY INFECTION",
"ARTHRITIS",
"GLAUCOMA",
"HYPOTENSION",
"HYPOTENSION",
"MYOCARDIAL INFARCTION",
"TACHYCARDIA",
"TACHYCARDIA",
"UPPER RESPIRATORY INFECTION",
"AV BLOCK SECOND DEGREE",
"CHEST TIGHTNESS",
"DIARRHEA",
"VOMITING",
"WEIGHT LOSS",
"APPLICATION SITE IRRITATION",
"APPLICATION SITE IRRITATION",
"SWEATING INCREASED",
"SINUS BRADYCARDIA",
"TRANSIENT ISCHEMIC ATTACKS",
"DIZZINESS",
"FATIGUE",
"MALAISE",
"NAUSEA",
"RASH",
"KNEE PAIN",
"BRUISE OF HEAD",
"BLADDER INFECTION",
"DIARRHEA",
"ABRASION NOS",
"SKIN TEAR",
"VOMITING",
"CARDIAC DISORDER",
"FLU",
"MYOCARDIAL INFARCTION",
"ITCHING",
"RASH",
"VENTRICULAR SEPTAL DEFECT",
"ST SEGMENT DEPRESSED",
"PALPITATIONS",
"VERTIGO",
"WOLFF-PARKINSON-WHITE SYNDROME",
"ABDOMINAL DISCOMFORT",
"APPLICATION SITE BURNING",
"APPLICATION SITE ITCHING",
"CHILLS",
"DIARRHEA",
"DIZZINESS",
"PERSPIRATION EXCESSIVE",
"MALAISE",
"RASH",
"BRADYCARDIA SINUS",
"SKIN RED",
"ITCHING",
"GLUCOSE INCREASED",
"ITCHING",
"RASH",
"REDNESS",
"FLU",
"EDEMA",
"ITCHING",
"RASH",
"COLD",
"ITCHING",
"ITCHING",
"RASH",
"RASH",
"RASH",
"RASH",
"FLU",
"SWELLING OF FEET",
"GLUCOSE INCREASED",
"RESPIRATION LABORED",
"RASH",
"ATRIAL FIBRILLATION",
"ATRIAL FLUTTER",
"BLISTERING",
"ERYTHEMA",
"ERYTHEMA",
"REDNESS",
"PERSPIRATION EXCESSIVE",
"ITCHING",
"HAY FEVER",
"EDEMA",
"ITCHING",
"RASH",
"VIRAL INFECTION",
"ITCHING",
"RASH",
"BURNING SENSATION",
"ITCHING",
"RASH",
"RASH",
"GAS",
"URINARY FREQUENCY",
"HEADACHE",
"DISEASE PARKINSON'S",
"SUICIDE",
"RASH",
"ERYTHEMA",
"HYPERBILIRUBINEMIA",
"PYROSIS",
"PRURITUS",
"ABRASIONS",
"PRURITUS",
"PRURITUS",
"ERYTHEMA",
"ITCHY",
"PRURITUS",
"RASH",
"RASH",
"PRURITIC RASH",
"WOUND BLEEDING",
"ST SEGMENT DEPRESSED",
"NAUSEA",
"LEFT VENTRICULAR HYPERTROPHY",
"VOMITING",
"ABDOMINAL CRAMPS",
"COLON CANCER",
"PRURITUS",
"FEELING ANXIOUS",
"ERYTHEMATOUS RASH",
"ANXIETY ATTACK",
"ANXIETY ATTACK",
"DIARRHEA",
"ABRASIONS",
"IRRITABILITY",
"ITCHING",
"FAINTING",
"SYNCOPAL ATTACK",
"ERYTHEMA",
"ERYTHEMA",
"ABRASIONS",
"PRURITIS",
"PRURITIS",
"CPK INCREASE",
"CONJUNCTIVITIS",
"POSTNASAL DRIP",
"SINUS ARRHYTHMIA",
"DIZZINESS",
"FRONTAL HEADACHE",
"STUPOR",
"TRANSIENT ISCHEMIC ATTACKS",
"BLURRED VISION",
"APPLICATION SITE BLISTER",
"DIZZINESS",
"MYOCARDIAL INFARCTION",
"SINUS BRADYCARDIA",
"DIZZINESS",
"HEADACHE",
"HEARTBEATS IRREGULAR",
"HEARTBEATS IRREGULAR",
"AGITATION",
"ERYTHEMA",
"ALCOHOL USE",
"APPLICATION SITE ITCHING",
"ATRIAL FIBRILLATION",
"BLADDER INFECTION",
"LIGHT-HEADED",
"FLANK PAIN",
"COLD",
"VENTRICULAR SEPTAL DEFECT",
"ATRIAL FIBRILLATION",
"APPLICATION SITE REDNESS",
"APPLICATION SITE ITCHING",
"APPLICATION SITE SWELLING",
"CONJUNCTIVITIS",
"COUGH",
"DIZZINESS",
"HEART RATE INCREASED",
"APPLICATION SITE RASH",
"COUGH",
"DIARRHEA",
"HEADACHE",
"HOT FLASHES",
"LEG CRAMPS",
"COLD",
"VENTRICULAR BIGEMINY",
"ABDOMINAL PAIN",
"APPLICATION SITE ITCHING",
"CONSTIPATION",
"INFERIOR MYOCARDIAL INFARCTION",
"APPLICATION SITE ITCHING",
"APPLICATION SITE BLISTER",
"LEFT ATRIAL HYPERTROPHY",
"PAIN IN THIGH",
"APPLICATION SITE ITCHING",
"APPLICATION SITE SWELLING",
"SINUS BRADYCARDIA",
"APPLICATION SITE REDNESS",
"HEADACHE",
"APPLICATION SITE REDNESS",
"APPLICATION SITE ITCHING",
"APPLICATION SITE ITCHING",
"LIGHTHEADEDNESS",
"LIGHT HEADEDNESS",
"APPLICATION SITE REDNESS",
"APPLICATION SITE SWELLING",
"ERYTHEMA",
"ITCHING",
"APPLICATION SITE ITCHING",
"ANTEROSEPTAL INFARCTION",
"DIZZINESS",
"LOW BLOOD PRESSURE",
"AV BLOCK SECOND DEGREE",
"SWELLING OF LEGS",
"APPLICATION SITE REDNESS",
"APPLICATION SITE REDNESS",
"APPLICATION SITE ITCHING",
"APPLICATION SITE ITCHING",
"APPLICATION SITE WARMTH",
"APPLICATION SITE WARMTH",
"NOSE BLEED",
"APPLICATION SITE RASH",
"APPLICATION SITE RASH",
"DIARRHEA",
"ABDOMINAL PAIN",
"APPLICATION SITE RASH",
"APPLICATION SITE ITCHING",
"DIARRHEA",
"APPLICATION SITE REDNESS",
"COUGH",
"CRAMP",
"SEPTAL MYOCARDIAL INFARCTION",
"SEPTAL MYOCARDIAL INFARCTION",
"SEPTAL MYOCARDIAL INFARCTION",
"RED THROAT",
"ITCHING",
"SINUS BRADYCARDIA",
"SINUS BRADYCARDIA",
"PERIPHERAL SWELLING",
"RASH",
"APPLICATION SITE RASH",
"RASH",
"SKIN TAG REMOVAL",
"APPLICATION SITE RASH",
"APPLICATION SITE RASH",
"APPLICATION SITE ITCHING",
"APPLICATION SITE ITCHING",
"APPLICATION SITE VESICLES",
"COLD SYMPTOMS",
"APPLICATION SITE RASH",
"APPLICATION SITE RASH",
"APPLICATION SITE ITCHING",
"APPLICATION SITE ITCHING",
"APPLICATION SITE BLISTER",
"DIZZINESS",
"ITCHY",
"RASH",
"IRRITATION SKIN",
"APPLICATION SITE RASH",
"APPLICATION SITE RASH",
"COUGH",
"DIZZINESS",
"DIZZINESS",
"DIZZINESS",
"T WAVE INVERTED",
"HEADACHE",
"ITCHING",
"APPLICATION SITE RASH",
"APPLICATION SITE DISCHARGE",
"APPLICATION SITE ITCHING",
"COUGH",
"DIARRHEA",
"HIP FRACTURE",
"SKIN LESION EXCISION",
"UPPER RESPIRATORY INFECTION",
"ENLARGED PROSTATE",
"ENLARGED PROSTATE",
"BLOOD IN URINE",
"CYSTOSCOPY",
"DEHYDRATION",
"LOW BLOOD PRESSURE",
"INFECTED FINGER",
"POSTURAL HYPOTENSION",
"FEVER",
"APPLICATION SITE RASH",
"APPLICATION SITE ITCHING",
"HOMONYMOUS HEMIANOPSIA",
"SINUS BRADYCARDIA",
"DIABETES",
"APPLICATION SITE BURNING",
"APPLICATION SITE ITCHING",
"APPLICATION SITE ITCHING",
"DRUG RASH",
"RASH",
"RASH",
"ALLERGIC GRANULOMATOSIS",
"APPLICATION SITE ITCHING",
"BIOPSY",
"DIZZINESS",
"FEELING COLD",
"NASAL CONGESTION",
"NIGHTMARE",
"MACULOPAPULAR RASH",
"MACULOPAPULAR RASH",
"PAPULAR RASH",
"VOMITING",
"APPLICATION SITE RASH",
"ST SEGMENT DEPRESSED",
"APPLICATION SITE BLEEDING",
"APPLICATION SITE RASH",
"APPLICATION SITE ITCHING",
"COUGH",
"SYNCOPE",
"VOMITING",
"DIZZINESS",
"FEVER",
"ALK PHOS RAISED",
"HEADACHE",
"SYNCOPE",
"TRANSIENT ISCHEMIC ATTACKS",
"BRUISING OF FACE",
"DIZZINESS",
"FELT FAINT",
"FRACTURED NOSE",
"FALL",
"KIDNEY STONE",
"PRURITUS",
"SALIVATION",
"SINUS BRADYCARDIA",
"SKIN IRRITATION",
"URINARY INFECTION",
"CHEST PAIN",
"ITCHING",
"COUGHING BLOOD",
"RALES",
"ERYTHEMA",
"COLD SYMPTOMS",
"ITCHING",
"RASH",
"SKIN PEELING",
"SKIN IRRITATION",
"VOMITING",
"ITCHING",
"RASH",
"APPLICATION SITE INDURATION",
"APPLICATION SITE ITCHING",
"APPLICATION SITE ITCHING",
"FALLING DOWN",
"FALLING DOWN",
"DIFFICULTY SLEEPING",
"NASAL CONGESTION",
"ERYTHEMA",
"GI BLEED",
"HIP FRACTURE",
"ITCHY",
"RASH",
"PREMATURE ATRIAL CONTRACTION",
"AGITATION",
"APPLICATION SITE RASH",
"ARTHRITIS",
"ARTHRITIS",
"SKIN IRRITATION",
"MYOCARDIAL INFARCT",
"REDNESS",
"HEADACHE",
"ITCHING",
"VERTIGO",
"DIZZINESS",
"HEADACHE",
"MYOCARDIAL INFARCTION",
"NAUSEA",
"SYNCOPE VASOVAGAL",
"SKIN IRRITATION",
"SKIN IRRITATION",
"COMPLEX PARTIAL SEIZURES",
"FALL",
"LACERATION OF HEAD",
"SYNCOPE",
"SYNCOPE",
"FIRST DEGREE ATRIOVENTRICULAR BLOCK",
"SINUS BRADYCARDIA",
"APPLICATION SITE IRRITATION",
"APPLICATION SITE ITCHING",
"COUGH",
"SHOULDER PAIN",
"ERYTHEMA",
"ITCHY",
"ITCHY",
"PRURITUS",
"CHILLS",
"CHILLS",
"CHILLS",
"COLD SWEAT",
"COLD SWEAT",
"COLD SWEAT",
"DIARRHEA",
"PRURITUS",
"RASH",
"ERYTHEMA",
"ITCHING",
"PAROXYSMAL ATRIAL FIBRILLATION",
"CONGESTIVE HEART FAILURE",
"SHORTNESS OF BREATH",
"HYPONATREMIA",
"MYOCARDIAL INFARCT",
"APPLICATION SITE ERYTHEMA",
"BURNING SENSATION",
"RASH",
"DROWSINESS",
"VOMITING",
"APPLICATION SITE BURNING",
"BLISTERS",
"ERYTHEMA",
"ITCHING",
"COMMON COLD",
"ERYTHEMA",
"HEADACHE",
"PRURITUS",
"RASH",
"ERYTHEMA",
"PRURITUS",
"APPLICATION SITE DESQUAMATION",
"ITCHY",
"RASH",
"DELUSIONS",
"FRACTURED HIP",
"INCREASED ACTIVITY",
"ATRIAL FIBRILLATION",
"FIRST DEGREE ATRIOVENTRICULAR BLOCK",
"BLISTERS",
"T WAVE FLATTENING OF",
"ITCHING",
"RASH",
"SUPRAVENTRICULAR TACHYCARDIA",
"ERYTHEMA",
"COLD SYMPTOMS",
"APPLICATION SITE RASH",
"APPLICATION SITE RASH",
"APPLICATION SITE ITCHING",
"APPLICATION SITE ITCHING",
"APPLICATION SITE URTICARIA",
"COLD SYMPTOMS",
"EAR INFECTION",
"GLOSSITIS",
"INTERMITTENT HEADACHE",
"APPLICATION SITE RASH",
"CERUMEN IMPACTION",
"SUBCONJUNCTIVAL HEMORRHAGE",
"COLD",
"COLD",
"TINGLING MOUTH",
"ITCHY RASH",
"ECTOPIC ATRIAL BEATS",
"TINNITUS",
"PREMATURE VENTRICULAR CONTRACTIONS",
"WEAKNESS",
"HYPERTENSION",
"HYPERTENSION",
"APPLICATION SITE REDNESS",
"APPLICATION SITE REDNESS",
"CATARACT EXTRACTION",
"NAUSEA",
"EMESIS",
"APPLICATION SITE ITCHING",
"BACK PAIN",
"DELIRIUM",
"PRURITIC RASH",
"LOWER EXTREMITIES WEAKNESS OF",
"LOWER EXTREMITIES WEAKNESS OF",
"CERVICITIS",
"HEARTBURN",
"INDIGESTION",
"MICTURITION BURNING",
"STOMACH FLU",
"GASTROOESOPHAGEAL REFLUX DISEASE",
"PELVIC PAIN",
"URINARY TRACT INFECTION",
"VAGINAL YEAST INFECTION",
"ABDOMINAL PAIN",
"ABDOMINAL PAIN",
"APPLICATION SITE ITCHING",
"LIGHTHEADEDNESS",
"APPLICATION SITE RASH",
"APPLICATION SITE REDNESS",
"COUGH",
"RASH",
"RASH",
"SHOULDER PAIN",
"SHOULDER PAIN",
"APPLICATION SITE IRRITATION",
"NAUSEA",
"BRONCHITIS",
"INCOMPLETE RIGHT BUNDLE BRANCH BLOCK",
"ST SEGMENT DEPRESSED",
"T WAVE INVERSION",
"PREMATURE ATRIAL CONTRACTION",
"APPLICATION SITE ERYTHEMA",
"APPLICATION SITE ERYTHEMA",
"APPLICATION SITE ITCHING",
"APPLICATION SITE ITCHING",
"SKIN IRRITATION",
"APPLICATION SITE REDNESS",
"APPLICATION SITE PRURITUS",
"LOOSE STOOLS",
"URINATION DIFFICULTY",
"SWEATING",
"DROWSINESS",
"KNEE PAIN",
"LOW BACK PAIN",
"COUGH",
"DIARRHEA",
"DIZZINESS",
"ERYTHEMA",
"HEAD COLD",
"BRADYCARDIA SINUS",
"EAR PAIN",
"ERYTHEMA",
"ERYTHEMA",
"PRURITIS",
"PRURITIS",
"IRRITATION SKIN",
"AV BLOCK SECOND DEGREE",
"CONTACT DERMATITIS",
"SINUS BRADYCARDIA",
"KIDNEY STONES",
"SINUS BRADYCARDIA",
"APPLICATION SITE REACTION",
"NAUSEA",
"SINUS BRADYCARDIA",
"CONFUSION",
"DIZZINESS",
"SWEATING",
"PALPITATIONS",
"SINUS BRADYCARDIA",
"EMPHYSEMA",
"COLD SYMPTOMS",
"EAR INFECTION",
"EAR INFECTION",
"T WAVE FLATTENING OF",
"T WAVE INVERTED",
"PERSPIRATION EXCESSIVE",
"ITCHING",
"CONFUSION",
"DIARRHEA",
"TIREDNESS",
"PERSPIRATION EXCESSIVE",
"LETHARGY",
"ITCHING",
"RESTLESSNESS",
"TIREDNESS",
"SLEEP EXCESSIVE",
"SYNCOPE",
"ATRIAL FLUTTER",
"INCOMPLETE RIGHT BUNDLE BRANCH BLOCK",
"VENTRICULAR SEPTAL DEFECT",
"BLISTERS",
"BLISTERS",
"ERYTHEMA",
"ITCHING",
"ST SEGMENT DEPRESSED",
"ITCHING",
"ERYTHEMA",
"MALIGNANT FIBROUS HISTIOCYTOMA",
"ITCHING",
"ERYTHEMA",
"ITCHING",
"UPPER RESPIRATORY INFECTION",
"ERYTHEMA",
"ITCHING",
"BLISTERS",
"ALLERGY",
"ITCH",
"SWELLING",
"ERYTHEMA",
"DELUSIONS",
"HALLUCINATION",
"PROSTATE CANCER",
"ITCHING",
"HIGH CHOLESTEROL",
"ITCHING",
"BLISTERS",
"ERYTHEMA",
"ITCHING",
"ERYTHEMA",
"ABDOMINAL PAIN",
"ERYTHEMA",
"ULCER",
"ERYTHEMA",
"ITCH",
"COGNITIVE IMPAIRMENT",
"ITCHING",
"ERYTHEMA",
"HEADACHE",
"HEADACHE",
"ITCHING",
"WELTS",
"BLURRED VISION",
"ERYTHEMA",
"CHEST PAIN",
"T WAVE INVERTED",
"ERYTHEMA",
"PERSPIRATION EXCESSIVE",
"ITCHING",
"ANXIETY",
"BACK PAIN",
"COUGH",
"SOFT STOOLS",
"BED WETTING",
"FATIGUE",
"IRRITABILITY",
"RUNNY NOSE",
"SINUS BRADYCARDIA",
"SKIN IRRITATION",
"SKIN IRRITATION",
"SKIN IRRITATION",
"WOUND NOS",
"CONFUSION",
"SWEATING INCREASED",
"INCREASED APPETITE",
"INSOMNIA",
"GENERALIZED PRURITUS",
"SKIN IRRITATION",
"PREMATURE VENTRICULAR CONTRACTIONS",
"INSOMNIA",
"ITCHING",
"ITCHING",
"RASH",
"SKIN IRRITATION",
"SKIN IRRITATION",
"HAIR LOSS",
"SKIN IRRITATION",
"FATIGUE",
"NOSE CONGESTION",
"NAUSEA",
"VOMITING",
"APPLICATION SITE PERSPIRATION",
"DIZZINESS",
"DIZZINESS",
"NAUSEA",
"ANKLE EDEMA",
"SKIN IRRITATION",
"SKIN IRRITATION",
"VOMITING",
"ANXIETY AGGRAVATED",
"STINGING",
"STINGING",
"RASH",
"SINUS BRADYCARDIA",
"SKIN IRRITATION",
"AGITATION",
"INFLAMMATION LOCALIZED",
"SYNCOPE",
"SYNCOPE",
"APPLICATION SITE IRRITATION",
"APPLICATION SITE IRRITATION",
"CONFUSION",
"PERSPIRATION EXCESSIVE",
"INFERIOR MYOCARDIAL INFARCTION",
"SINUS BRADYCARDIA",
"VOMITING",
"DIARRHEA",
"SLEEPINESS",
"APPLICATION SITE BURNING",
"APPLICATION SITE BURNING",
"BRADYCARDIA",
"BRADYCARDIA",
"CARBOHYDRATE CRAVING",
"SINUS BRADYCARDIA",
"UPPER RESPIRATORY INFECTION",
"INCREASED AGITATION",
"TEMPERATURE ELEVATION",
"LIGHTHEADEDNESS",
"DIAPHORESIS",
"HYPERTENSION",
"SYNCOPE",
"APPLICATION SITE ITCHING",
"APPLICATION SITE ITCHING",
"UNSTEADINESS",
"UNSTEADINESS",
"BRUISING OF FACE",
"BRUISING OF FACE",
"INCOORDINATION",
"FALL",
"APPLICATION SITE DISCOLORATION",
"APPLICATION SITE ITCHING",
"PAIN IN HIP",
"KNEE PAIN",
"SWALLOWING DIFFICULT",
"CARBOHYDRATE CRAVING",
"SOMNOLENCE",
"APPLICATION SITE RASH",
"APPLICATION SITE BURNING",
"APPLICATION SITE IRRITATION",
"APPLICATION SITE IRRITATION",
"APPLICATION SITE RASH",
"APPLICATION SITE RASH",
"APPLICATION SITE RASH",
"APPLICATION SITE RASH",
"APPLICATION SITE REACTION",
"APPLICATION SITE REACTION",
"CONFUSION",
"ATOPIC DERMATITIS",
"HYPERTENSION",
"SKIN EROSION",
"SLEEPINESS",
"APPLICATION SITE IRRITATION",
"APPLICATION SITE IRRITATION",
"FATIGUE",
"VISUAL",
"NAUSEA",
"PARTIAL SEIZURES WITH SECONDARY GENERALIZATION",
"SHORT-TERM MEMORY LOSS",
"APPLICATION SITE RASH",
"APPLICATION SITE RASH",
"APPLICATION SITE ITCHING",
"BACK PAIN",
"DECREASED APPETITE",
"LETHARGY",
"NAUSEA",
"NAUSEA",
"NAUSEA",
"NAUSEA",
"NAUSEA"  ],
"AELLTCD": [
null,
null,
null,
null,
null,
null,
null,
null,
null,
null,
null,
null,
null,
null,
null,
null,
null,
null,
null,
null,
null,
null,
null,
null,
null,
null,
null,
null,
null,
null,
null,
null,
null,
null,
null,
null,
null,
null,
null,
null,
null,
null,
null,
null,
null,
null,
null,
null,
null,
null,
null,
null,
null,
null,
null,
null,
null,
null,
null,
null,
null,
null,
null,
null,
null,
null,
null,
null,
null,
null,
null,
null,
null,
null,
null,
null,
null,
null,
null,
null,
null,
null,
null,
null,
null,
null,
null,
null,
null,
null,
null,
null,
null,
null,
null,
null,
null,
null,
null,
null,
null,
null,
null,
null,
null,
null,
null,
null,
null,
null,
null,
null,
null,
null,
null,
null,
null,
null,
null,
null,
null,
null,
null,
null,
null,
null,
null,
null,
null,
null,
null,
null,
null,
null,
null,
null,
null,
null,
null,
null,
null,
null,
null,
null,
null,
null,
null,
null,
null,
null,
null,
null,
null,
null,
null,
null,
null,
null,
null,
null,
null,
null,
null,
null,
null,
null,
null,
null,
null,
null,
null,
null,
null,
null,
null,
null,
null,
null,
null,
null,
null,
null,
null,
null,
null,
null,
null,
null,
null,
null,
null,
null,
null,
null,
null,
null,
null,
null,
null,
null,
null,
null,
null,
null,
null,
null,
null,
null,
null,
null,
null,
null,
null,
null,
null,
null,
null,
null,
null,
null,
null,
null,
null,
null,
null,
null,
null,
null,
null,
null,
null,
null,
null,
null,
null,
null,
null,
null,
null,
null,
null,
null,
null,
null,
null,
null,
null,
null,
null,
null,
null,
null,
null,
null,
null,
null,
null,
null,
null,
null,
null,
null,
null,
null,
null,
null,
null,
null,
null,
null,
null,
null,
null,
null,
null,
null,
null,
null,
null,
null,
null,
null,
null,
null,
null,
null,
null,
null,
null,
null,
null,
null,
null,
null,
null,
null,
null,
null,
null,
null,
null,
null,
null,
null,
null,
null,
null,
null,
null,
null,
null,
null,
null,
null,
null,
null,
null,
null,
null,
null,
null,
null,
null,
null,
null,
null,
null,
null,
null,
null,
null,
null,
null,
null,
null,
null,
null,
null,
null,
null,
null,
null,
null,
null,
null,
null,
null,
null,
null,
null,
null,
null,
null,
null,
null,
null,
null,
null,
null,
null,
null,
null,
null,
null,
null,
null,
null,
null,
null,
null,
null,
null,
null,
null,
null,
null,
null,
null,
null,
null,
null,
null,
null,
null,
null,
null,
null,
null,
null,
null,
null,
null,
null,
null,
null,
null,
null,
null,
null,
null,
null,
null,
null,
null,
null,
null,
null,
null,
null,
null,
null,
null,
null,
null,
null,
null,
null,
null,
null,
null,
null,
null,
null,
null,
null,
null,
null,
null,
null,
null,
null,
null,
null,
null,
null,
null,
null,
null,
null,
null,
null,
null,
null,
null,
null,
null,
null,
null,
null,
null,
null,
null,
null,
null,
null,
null,
null,
null,
null,
null,
null,
null,
null,
null,
null,
null,
null,
null,
null,
null,
null,
null,
null,
null,
null,
null,
null,
null,
null,
null,
null,
null,
null,
null,
null,
null,
null,
null,
null,
null,
null,
null,
null,
null,
null,
null,
null,
null,
null,
null,
null,
null,
null,
null,
null,
null,
null,
null,
null,
null,
null,
null,
null,
null,
null,
null,
null,
null,
null,
null,
null,
null,
null,
null,
null,
null,
null,
null,
null,
null,
null,
null,
null,
null,
null,
null,
null,
null,
null,
null,
null,
null,
null,
null,
null,
null,
null,
null,
null,
null,
null,
null,
null,
null,
null,
null,
null,
null,
null,
null,
null,
null,
null,
null,
null,
null,
null,
null,
null,
null,
null,
null,
null,
null,
null,
null,
null,
null,
null,
null,
null,
null,
null,
null,
null,
null,
null,
null,
null,
null,
null,
null,
null,
null,
null,
null,
null,
null,
null,
null,
null,
null,
null,
null,
null,
null,
null,
null,
null,
null,
null,
null,
null,
null,
null,
null,
null,
null,
null,
null,
null,
null,
null,
null,
null,
null,
null,
null,
null,
null,
null,
null,
null,
null,
null,
null,
null,
null,
null,
null,
null,
null,
null,
null,
null,
null,
null,
null,
null,
null,
null,
null,
null,
null,
null,
null,
null,
null,
null,
null,
null,
null,
null,
null,
null,
null,
null,
null,
null,
null,
null,
null,
null,
null,
null,
null,
null,
null,
null,
null,
null,
null,
null,
null,
null,
null,
null,
null,
null,
null,
null,
null,
null,
null,
null,
null,
null,
null,
null,
null,
null,
null,
null,
null,
null,
null,
null,
null,
null,
null,
null,
null,
null,
null,
null,
null,
null,
null,
null,
null,
null,
null,
null,
null,
null,
null,
null,
null,
null,
null,
null,
null,
null,
null,
null,
null,
null,
null,
null,
null,
null,
null,
null,
null,
null,
null,
null,
null,
null,
null,
null,
null,
null,
null,
null,
null,
null,
null,
null,
null,
null,
null,
null,
null,
null,
null,
null,
null,
null,
null,
null,
null,
null,
null,
null,
null,
null,
null,
null,
null,
null,
null,
null,
null,
null,
null,
null,
null,
null,
null,
null,
null,
null,
null,
null,
null,
null,
null,
null,
null,
null,
null,
null,
null,
null,
null,
null,
null,
null,
null,
null,
null,
null,
null,
null,
null,
null,
null,
null,
null,
null,
null,
null,
null,
null,
null,
null,
null,
null,
null,
null,
null,
null,
null,
null,
null,
null,
null,
null,
null,
null,
null,
null,
null,
null,
null,
null,
null,
null,
null,
null,
null,
null,
null,
null,
null,
null,
null,
null,
null,
null,
null,
null,
null,
null,
null,
null,
null,
null,
null,
null,
null,
null,
null,
null,
null,
null,
null,
null,
null,
null,
null,
null,
null,
null,
null,
null,
null,
null,
null,
null,
null,
null,
null,
null,
null,
null,
null,
null,
null,
null,
null,
null,
null,
null,
null,
null,
null,
null,
null,
null,
null,
null,
null,
null,
null,
null,
null,
null,
null,
null,
null,
null,
null,
null,
null,
null,
null,
null,
null,
null,
null,
null,
null,
null,
null,
null,
null,
null,
null,
null,
null,
null,
null,
null,
null,
"VISUAL HALLUCINATIONS",
null,
null,
null,
null,
null,
null,
null,
null,
null,
null,
null,
null,
null,
null  ],
"AEDECOD": [
"APPLICATION SITE ERYTHEMA",
"APPLICATION SITE PRURITUS",
"DIARRHOEA",
"ATRIOVENTRICULAR BLOCK SECOND DEGREE",
"ERYTHEMA",
"ERYTHEMA",
"APPLICATION SITE ERYTHEMA",
"APPLICATION SITE PRURITUS",
"APPLICATION SITE PRURITUS",
"FATIGUE",
"BUNDLE BRANCH BLOCK LEFT",
"HIATUS HERNIA",
"UPPER RESPIRATORY TRACT INFECTION",
"APPLICATION SITE PRURITUS",
"APPLICATION SITE PRURITUS",
"APPLICATION SITE VESICLES",
"ERYTHEMA",
"NASAL CONGESTION",
"PHARYNGOLARYNGEAL PAIN",
"PRURITUS GENERALISED",
"PRURITUS GENERALISED",
"PRURITUS GENERALISED",
"PRURITUS GENERALISED",
"ARTHRALGIA",
"CELLULITIS",
"ERYTHEMA",
"LOCALISED INFECTION",
"MICTURITION URGENCY",
"PRURITUS",
"APPLICATION SITE DERMATITIS",
"APPLICATION SITE ERYTHEMA",
"APPLICATION SITE ERYTHEMA",
"APPLICATION SITE IRRITATION",
"APPLICATION SITE IRRITATION",
"APPLICATION SITE PRURITUS",
"APPLICATION SITE PRURITUS",
"FATIGUE",
"COUGH",
"EYE ALLERGY",
"EYE PRURITUS",
"EYE SWELLING",
"NASAL CONGESTION",
"PRURITUS",
"PYREXIA",
"URINARY TRACT INFECTION",
"APPLICATION SITE ERYTHEMA",
"APPLICATION SITE ERYTHEMA",
"APPLICATION SITE PRURITUS",
"APPLICATION SITE PRURITUS",
"APPLICATION SITE ERYTHEMA",
"APPLICATION SITE ERYTHEMA",
"APPLICATION SITE IRRITATION",
"APPLICATION SITE IRRITATION",
"APPLICATION SITE PAIN",
"APPLICATION SITE PRURITUS",
"APPLICATION SITE PRURITUS",
"APPLICATION SITE VESICLES",
"FATIGUE",
"RASH",
"ACTINIC KERATOSIS",
"APPLICATION SITE ERYTHEMA",
"APPLICATION SITE PRURITUS",
"CALCULUS URETHRAL",
"DEPRESSED MOOD",
"DYSPEPSIA",
"EPISTAXIS",
"FLANK PAIN",
"LOWER RESPIRATORY TRACT INFECTION",
"INCREASED APPETITE",
"APPLICATION SITE ERYTHEMA",
"APPLICATION SITE PRURITUS",
"APPLICATION SITE VESICLES",
"HEADACHE",
"MICTURITION URGENCY",
"NASOPHARYNGITIS",
"VOMITING",
"AGITATION",
"APPLICATION SITE URTICARIA",
"ERYTHEMA",
"ERYTHEMA",
"PRURITUS",
"PRURITUS",
"URTICARIA",
"URTICARIA",
"URTICARIA",
"APPLICATION SITE ERYTHEMA",
"APPLICATION SITE IRRITATION",
"APPLICATION SITE PRURITUS",
"COUGH",
"COUGH",
"ERYTHEMA",
"MUSCULAR WEAKNESS",
"NASAL MUCOSA BIOPSY",
"PNEUMONIA",
"SECRETION DISCHARGE",
"EYE LASER SURGERY",
"APPLICATION SITE ERYTHEMA",
"APPLICATION SITE PRURITUS",
"CONFUSIONAL STATE",
"DYSPNOEA",
"INCONTINENCE",
"JOINT DISLOCATION",
"SHOULDER PAIN",
"SKIN LACERATION",
"SUDDEN DEATH",
"APPLICATION SITE IRRITATION",
"ERYTHEMA",
"ERYTHEMA",
"FATIGUE",
"HORDEOLUM",
"PRURITUS",
"SKIN ODOUR ABNORMAL",
"UPPER RESPIRATORY TRACT INFECTION",
"COUGH",
"ERYTHEMA",
"NASAL CONGESTION",
"NAUSEA",
"PAROSMIA",
"PRURITUS",
"SALIVARY HYPERSECRETION",
"VOMITING",
"APPLICATION SITE ERYTHEMA",
"APPLICATION SITE PRURITUS",
"RHINORRHOEA",
"SALIVARY HYPERSECRETION",
"APPLICATION SITE ERYTHEMA",
"APPLICATION SITE ERYTHEMA",
"APPLICATION SITE PRURITUS",
"APPLICATION SITE PRURITUS",
"APPLICATION SITE PRURITUS",
"RASH ERYTHEMATOUS",
"APPLICATION SITE ERYTHEMA",
"APPLICATION SITE PERSPIRATION",
"APPLICATION SITE PRURITUS",
"CONTUSION",
"DIZZINESS",
"DIZZINESS",
"EPISTAXIS",
"FEELING ABNORMAL",
"HEADACHE",
"HYPERHIDROSIS",
"LIBIDO DECREASED",
"LISTLESS",
"MALAISE",
"MALAISE",
"MYALGIA",
"NASAL CONGESTION",
"PAIN",
"PHARYNGOLARYNGEAL PAIN",
"PRODUCTIVE COUGH",
"RESPIRATORY TRACT CONGESTION",
"RHINITIS",
"STOMACH DISCOMFORT",
"APPLICATION SITE ERYTHEMA",
"APPLICATION SITE PRURITUS",
"APPLICATION SITE URTICARIA",
"CYST",
"DEPRESSED MOOD",
"DEPRESSED MOOD",
"DYSPHONIA",
"FATIGUE",
"ONYCHOMYCOSIS",
"APPLICATION SITE ERYTHEMA",
"APPLICATION SITE PRURITUS",
"APPLICATION SITE VESICLES",
"APPLICATION SITE ERYTHEMA",
"APPLICATION SITE ERYTHEMA",
"APPLICATION SITE IRRITATION",
"APPLICATION SITE PRURITUS",
"APPLICATION SITE PRURITUS",
"APPLICATION SITE ERYTHEMA",
"APPLICATION SITE PRURITUS",
"APPLICATION SITE VESICLES",
"APPLICATION SITE PRURITUS",
"BACK PAIN",
"HEADACHE",
"HEADACHE",
"NAUSEA",
"APPLICATION SITE ERYTHEMA",
"APPLICATION SITE ERYTHEMA",
"APPLICATION SITE IRRITATION",
"APPLICATION SITE IRRITATION",
"APPLICATION SITE PAIN",
"APPLICATION SITE PRURITUS",
"APPLICATION SITE PRURITUS",
"APPLICATION SITE PRURITUS",
"APPLICATION SITE VESICLES",
"CHEST DISCOMFORT",
"COUGH",
"HEADACHE",
"DIARRHOEA",
"HYPERHIDROSIS",
"UPPER RESPIRATORY TRACT INFECTION",
"DIARRHOEA",
"MICTURITION URGENCY",
"UPPER RESPIRATORY TRACT INFECTION",
"UPPER RESPIRATORY TRACT INFECTION",
"APPLICATION SITE PRURITUS",
"APPLICATION SITE ERYTHEMA",
"APPLICATION SITE ERYTHEMA",
"APPLICATION SITE IRRITATION",
"APPLICATION SITE PRURITUS",
"APPLICATION SITE PRURITUS",
"APPLICATION SITE VESICLES",
"PARAESTHESIA",
"SALIVARY HYPERSECRETION",
"APPLICATION SITE IRRITATION",
"NEUTROPHIL COUNT INCREASED",
"RECTAL HAEMORRHAGE",
"SKIN IRRITATION",
"URINE ANALYSIS ABNORMAL",
"WHITE BLOOD CELL COUNT INCREASED",
"DIARRHOEA",
"INSOMNIA",
"APPLICATION SITE DERMATITIS",
"APPLICATION SITE PRURITUS",
"APPLICATION SITE PRURITUS",
"BENIGN PROSTATIC HYPERPLASIA",
"BIOPSY PROSTATE",
"HYPERCHOLESTEROLAEMIA",
"HYPERHIDROSIS",
"APPLICATION SITE IRRITATION",
"APPLICATION SITE IRRITATION",
"APPLICATION SITE IRRITATION",
"CHILLS",
"APPLICATION SITE IRRITATION",
"APPLICATION SITE IRRITATION",
"CATARACT OPERATION",
"OEDEMA PERIPHERAL",
"OEDEMA PERIPHERAL",
"UPPER RESPIRATORY TRACT INFECTION",
"APPLICATION SITE IRRITATION",
"APPLICATION SITE IRRITATION",
"PRURITUS",
"PRURITUS",
"ATRIOVENTRICULAR BLOCK SECOND DEGREE",
"APPLICATION SITE ERYTHEMA",
"APPLICATION SITE ERYTHEMA",
"SOMNOLENCE",
"SOMNOLENCE",
"DECREASED APPETITE",
"DECREASED APPETITE",
"DISORIENTATION",
"APPLICATION SITE DERMATITIS",
"APPLICATION SITE DERMATITIS",
"DIZZINESS",
"DIZZINESS",
"UPPER RESPIRATORY TRACT INFECTION",
"ARTHRITIS",
"GLAUCOMA",
"HYPOTENSION",
"HYPOTENSION",
"MYOCARDIAL INFARCTION",
"TACHYCARDIA",
"TACHYCARDIA",
"UPPER RESPIRATORY TRACT INFECTION",
"ATRIOVENTRICULAR BLOCK SECOND DEGREE",
"CHEST DISCOMFORT",
"DIARRHOEA",
"VOMITING",
"WEIGHT DECREASED",
"APPLICATION SITE IRRITATION",
"APPLICATION SITE IRRITATION",
"HYPERHIDROSIS",
"SINUS BRADYCARDIA",
"TRANSIENT ISCHAEMIC ATTACK",
"DIZZINESS",
"FATIGUE",
"MALAISE",
"NAUSEA",
"RASH",
"ARTHRALGIA",
"CONTUSION",
"CYSTITIS",
"DIARRHOEA",
"EXCORIATION",
"SKIN LACERATION",
"VOMITING",
"CARDIAC DISORDER",
"INFLUENZA",
"MYOCARDIAL INFARCTION",
"PRURITUS",
"RASH",
"VENTRICULAR SEPTAL DEFECT",
"ELECTROCARDIOGRAM ST SEGMENT DEPRESSION",
"PALPITATIONS",
"VERTIGO",
"WOLFF-PARKINSON-WHITE SYNDROME",
"ABDOMINAL DISCOMFORT",
"APPLICATION SITE IRRITATION",
"APPLICATION SITE PRURITUS",
"CHILLS",
"DIARRHOEA",
"DIZZINESS",
"HYPERHIDROSIS",
"MALAISE",
"RASH",
"SINUS BRADYCARDIA",
"ERYTHEMA",
"PRURITUS",
"BLOOD GLUCOSE INCREASED",
"PRURITUS",
"RASH",
"ERYTHEMA",
"INFLUENZA",
"OEDEMA",
"PRURITUS",
"RASH",
"NASOPHARYNGITIS",
"PRURITUS",
"PRURITUS",
"RASH",
"RASH",
"RASH",
"RASH",
"INFLUENZA",
"OEDEMA PERIPHERAL",
"BLOOD GLUCOSE INCREASED",
"DYSPNOEA",
"RASH",
"ATRIAL FIBRILLATION",
"ATRIAL FLUTTER",
"BLISTER",
"ERYTHEMA",
"ERYTHEMA",
"ERYTHEMA",
"HYPERHIDROSIS",
"PRURITUS",
"SEASONAL ALLERGY",
"OEDEMA",
"PRURITUS",
"RASH",
"VIRAL INFECTION",
"PRURITUS",
"RASH",
"BURNING SENSATION",
"PRURITUS",
"RASH",
"RASH",
"FLATULENCE",
"POLLAKIURIA",
"HEADACHE",
"PARKINSON'S DISEASE",
"COMPLETED SUICIDE",
"RASH",
"ERYTHEMA",
"HYPERBILIRUBINAEMIA",
"DYSPEPSIA",
"PRURITUS",
"EXCORIATION",
"PRURITUS",
"PRURITUS",
"ERYTHEMA",
"PRURITUS",
"PRURITUS",
"RASH",
"RASH",
"RASH PRURITIC",
"WOUND HAEMORRHAGE",
"ELECTROCARDIOGRAM ST SEGMENT DEPRESSION",
"NAUSEA",
"VENTRICULAR HYPERTROPHY",
"VOMITING",
"ABDOMINAL PAIN",
"COLON CANCER",
"PRURITUS",
"ANXIETY",
"RASH ERYTHEMATOUS",
"ANXIETY",
"ANXIETY",
"DIARRHOEA",
"EXCORIATION",
"IRRITABILITY",
"PRURITUS",
"SYNCOPE",
"SYNCOPE",
"ERYTHEMA",
"ERYTHEMA",
"EXCORIATION",
"PRURITUS",
"PRURITUS",
"BLOOD CREATINE PHOSPHOKINASE INCREASED",
"CONJUNCTIVITIS",
"POSTNASAL DRIP",
"SINUS ARRHYTHMIA",
"DIZZINESS",
"HEADACHE",
"STUPOR",
"TRANSIENT ISCHAEMIC ATTACK",
"VISION BLURRED",
"APPLICATION SITE VESICLES",
"DIZZINESS",
"MYOCARDIAL INFARCTION",
"SINUS BRADYCARDIA",
"DIZZINESS",
"HEADACHE",
"HEART RATE IRREGULAR",
"HEART RATE IRREGULAR",
"AGITATION",
"ERYTHEMA",
"ALCOHOL USE",
"APPLICATION SITE PRURITUS",
"ATRIAL FIBRILLATION",
"CYSTITIS",
"DIZZINESS",
"FLANK PAIN",
"NASOPHARYNGITIS",
"VENTRICULAR SEPTAL DEFECT",
"ATRIAL FIBRILLATION",
"APPLICATION SITE ERYTHEMA",
"APPLICATION SITE PRURITUS",
"APPLICATION SITE SWELLING",
"CONJUNCTIVITIS",
"COUGH",
"DIZZINESS",
"HEART RATE INCREASED",
"APPLICATION SITE DERMATITIS",
"COUGH",
"DIARRHOEA",
"HEADACHE",
"HOT FLUSH",
"MUSCLE SPASMS",
"NASOPHARYNGITIS",
"VENTRICULAR EXTRASYSTOLES",
"ABDOMINAL PAIN",
"APPLICATION SITE PRURITUS",
"CONSTIPATION",
"MYOCARDIAL INFARCTION",
"APPLICATION SITE PRURITUS",
"APPLICATION SITE VESICLES",
"ATRIAL HYPERTROPHY",
"PAIN IN EXTREMITY",
"APPLICATION SITE PRURITUS",
"APPLICATION SITE SWELLING",
"SINUS BRADYCARDIA",
"APPLICATION SITE ERYTHEMA",
"HEADACHE",
"APPLICATION SITE ERYTHEMA",
"APPLICATION SITE PRURITUS",
"APPLICATION SITE PRURITUS",
"DIZZINESS",
"DIZZINESS",
"APPLICATION SITE ERYTHEMA",
"APPLICATION SITE SWELLING",
"ERYTHEMA",
"PRURITUS",
"APPLICATION SITE PRURITUS",
"MYOCARDIAL INFARCTION",
"DIZZINESS",
"HYPOTENSION",
"ATRIOVENTRICULAR BLOCK SECOND DEGREE",
"OEDEMA PERIPHERAL",
"APPLICATION SITE ERYTHEMA",
"APPLICATION SITE ERYTHEMA",
"APPLICATION SITE PRURITUS",
"APPLICATION SITE PRURITUS",
"APPLICATION SITE WARMTH",
"APPLICATION SITE WARMTH",
"EPISTAXIS",
"APPLICATION SITE DERMATITIS",
"APPLICATION SITE DERMATITIS",
"DIARRHOEA",
"ABDOMINAL PAIN",
"APPLICATION SITE DERMATITIS",
"APPLICATION SITE PRURITUS",
"DIARRHOEA",
"APPLICATION SITE ERYTHEMA",
"COUGH",
"MUSCLE SPASMS",
"MYOCARDIAL INFARCTION",
"MYOCARDIAL INFARCTION",
"MYOCARDIAL INFARCTION",
"PHARYNGEAL ERYTHEMA",
"PRURITUS",
"SINUS BRADYCARDIA",
"SINUS BRADYCARDIA",
"OEDEMA PERIPHERAL",
"RASH",
"APPLICATION SITE DERMATITIS",
"RASH",
"ACROCHORDON EXCISION",
"APPLICATION SITE DERMATITIS",
"APPLICATION SITE DERMATITIS",
"APPLICATION SITE PRURITUS",
"APPLICATION SITE PRURITUS",
"APPLICATION SITE VESICLES",
"NASOPHARYNGITIS",
"APPLICATION SITE DERMATITIS",
"APPLICATION SITE DERMATITIS",
"APPLICATION SITE PRURITUS",
"APPLICATION SITE PRURITUS",
"APPLICATION SITE VESICLES",
"DIZZINESS",
"PRURITUS",
"RASH",
"SKIN IRRITATION",
"APPLICATION SITE DERMATITIS",
"APPLICATION SITE DERMATITIS",
"COUGH",
"DIZZINESS",
"DIZZINESS",
"DIZZINESS",
"ELECTROCARDIOGRAM T WAVE INVERSION",
"HEADACHE",
"PRURITUS",
"APPLICATION SITE DERMATITIS",
"APPLICATION SITE DISCHARGE",
"APPLICATION SITE PRURITUS",
"COUGH",
"DIARRHOEA",
"HIP FRACTURE",
"SKIN LESION EXCISION",
"UPPER RESPIRATORY TRACT INFECTION",
"BENIGN PROSTATIC HYPERPLASIA",
"BENIGN PROSTATIC HYPERPLASIA",
"BLOOD URINE PRESENT",
"CYSTOSCOPY",
"DEHYDRATION",
"HYPOTENSION",
"LOCALISED INFECTION",
"ORTHOSTATIC HYPOTENSION",
"PYREXIA",
"APPLICATION SITE DERMATITIS",
"APPLICATION SITE PRURITUS",
"HEMIANOPIA HOMONYMOUS",
"SINUS BRADYCARDIA",
"DIABETES MELLITUS",
"APPLICATION SITE IRRITATION",
"APPLICATION SITE PRURITUS",
"APPLICATION SITE PRURITUS",
"DRUG ERUPTION",
"RASH",
"RASH",
"ALLERGIC GRANULOMATOUS ANGIITIS",
"APPLICATION SITE PRURITUS",
"BIOPSY",
"DIZZINESS",
"FEELING COLD",
"NASAL CONGESTION",
"NIGHTMARE",
"RASH MACULO-PAPULAR",
"RASH MACULO-PAPULAR",
"RASH PAPULAR",
"VOMITING",
"APPLICATION SITE DERMATITIS",
"ELECTROCARDIOGRAM ST SEGMENT DEPRESSION",
"APPLICATION SITE BLEEDING",
"APPLICATION SITE DERMATITIS",
"APPLICATION SITE PRURITUS",
"COUGH",
"SYNCOPE",
"VOMITING",
"DIZZINESS",
"PYREXIA",
"BLOOD ALKALINE PHOSPHATASE INCREASED",
"HEADACHE",
"SYNCOPE",
"TRANSIENT ISCHAEMIC ATTACK",
"CONTUSION",
"DIZZINESS",
"DIZZINESS",
"FACIAL BONES FRACTURE",
"FALL",
"NEPHROLITHIASIS",
"PRURITUS",
"SALIVARY HYPERSECRETION",
"SINUS BRADYCARDIA",
"SKIN IRRITATION",
"URINARY TRACT INFECTION",
"CHEST PAIN",
"PRURITUS",
"HAEMOPTYSIS",
"RALES",
"ERYTHEMA",
"NASOPHARYNGITIS",
"PRURITUS",
"RASH",
"SKIN EXFOLIATION",
"SKIN IRRITATION",
"VOMITING",
"PRURITUS",
"RASH",
"APPLICATION SITE INDURATION",
"APPLICATION SITE PRURITUS",
"APPLICATION SITE PRURITUS",
"FALL",
"FALL",
"INSOMNIA",
"NASAL CONGESTION",
"ERYTHEMA",
"GASTROINTESTINAL HAEMORRHAGE",
"HIP FRACTURE",
"PRURITUS",
"RASH",
"SUPRAVENTRICULAR EXTRASYSTOLES",
"AGITATION",
"APPLICATION SITE DERMATITIS",
"ARTHRITIS",
"ARTHRITIS",
"SKIN IRRITATION",
"MYOCARDIAL INFARCTION",
"ERYTHEMA",
"HEADACHE",
"PRURITUS",
"VERTIGO",
"DIZZINESS",
"HEADACHE",
"MYOCARDIAL INFARCTION",
"NAUSEA",
"SYNCOPE VASOVAGAL",
"SKIN IRRITATION",
"SKIN IRRITATION",
"COMPLEX PARTIAL SEIZURES",
"FALL",
"SKIN LACERATION",
"SYNCOPE",
"SYNCOPE",
"ATRIOVENTRICULAR BLOCK FIRST DEGREE",
"SINUS BRADYCARDIA",
"APPLICATION SITE IRRITATION",
"APPLICATION SITE PRURITUS",
"COUGH",
"SHOULDER PAIN",
"ERYTHEMA",
"PRURITUS",
"PRURITUS",
"PRURITUS",
"CHILLS",
"CHILLS",
"CHILLS",
"COLD SWEAT",
"COLD SWEAT",
"COLD SWEAT",
"DIARRHOEA",
"PRURITUS",
"RASH",
"ERYTHEMA",
"PRURITUS",
"ATRIAL FIBRILLATION",
"CARDIAC FAILURE CONGESTIVE",
"DYSPNOEA",
"HYPONATRAEMIA",
"MYOCARDIAL INFARCTION",
"APPLICATION SITE ERYTHEMA",
"BURNING SENSATION",
"RASH",
"SOMNOLENCE",
"VOMITING",
"APPLICATION SITE IRRITATION",
"BLISTER",
"ERYTHEMA",
"PRURITUS",
"NASOPHARYNGITIS",
"ERYTHEMA",
"HEADACHE",
"PRURITUS",
"RASH",
"ERYTHEMA",
"PRURITUS",
"APPLICATION SITE DESQUAMATION",
"PRURITUS",
"RASH",
"DELUSION",
"HIP FRACTURE",
"PSYCHOMOTOR HYPERACTIVITY",
"ATRIAL FIBRILLATION",
"ATRIOVENTRICULAR BLOCK FIRST DEGREE",
"BLISTER",
"ELECTROCARDIOGRAM T WAVE AMPLITUDE DECREASED",
"PRURITUS",
"RASH",
"SUPRAVENTRICULAR TACHYCARDIA",
"ERYTHEMA",
"NASOPHARYNGITIS",
"APPLICATION SITE DERMATITIS",
"APPLICATION SITE DERMATITIS",
"APPLICATION SITE PRURITUS",
"APPLICATION SITE PRURITUS",
"APPLICATION SITE URTICARIA",
"NASOPHARYNGITIS",
"EAR INFECTION",
"GLOSSITIS",
"HEADACHE",
"APPLICATION SITE DERMATITIS",
"CERUMEN IMPACTION",
"CONJUNCTIVAL HAEMORRHAGE",
"NASOPHARYNGITIS",
"NASOPHARYNGITIS",
"PARAESTHESIA ORAL",
"RASH PRURITIC",
"SUPRAVENTRICULAR EXTRASYSTOLES",
"TINNITUS",
"VENTRICULAR EXTRASYSTOLES",
"ASTHENIA",
"HYPERTENSION",
"HYPERTENSION",
"APPLICATION SITE ERYTHEMA",
"APPLICATION SITE ERYTHEMA",
"CATARACT OPERATION",
"NAUSEA",
"VOMITING",
"APPLICATION SITE PRURITUS",
"BACK PAIN",
"DELIRIUM",
"RASH PRURITIC",
"ASTHENIA",
"ASTHENIA",
"CERVICITIS",
"DYSPEPSIA",
"DYSPEPSIA",
"DYSURIA",
"GASTROENTERITIS VIRAL",
"GASTROOESOPHAGEAL REFLUX DISEASE",
"PELVIC PAIN",
"URINARY TRACT INFECTION",
"VAGINAL MYCOSIS",
"ABDOMINAL PAIN",
"ABDOMINAL PAIN",
"APPLICATION SITE PRURITUS",
"DIZZINESS",
"APPLICATION SITE DERMATITIS",
"APPLICATION SITE ERYTHEMA",
"COUGH",
"RASH",
"RASH",
"SHOULDER PAIN",
"SHOULDER PAIN",
"APPLICATION SITE IRRITATION",
"NAUSEA",
"BRONCHITIS",
"BUNDLE BRANCH BLOCK RIGHT",
"ELECTROCARDIOGRAM ST SEGMENT DEPRESSION",
"ELECTROCARDIOGRAM T WAVE INVERSION",
"SUPRAVENTRICULAR EXTRASYSTOLES",
"APPLICATION SITE ERYTHEMA",
"APPLICATION SITE ERYTHEMA",
"APPLICATION SITE PRURITUS",
"APPLICATION SITE PRURITUS",
"SKIN IRRITATION",
"APPLICATION SITE ERYTHEMA",
"APPLICATION SITE PRURITUS",
"DIARRHOEA",
"DYSURIA",
"HYPERHIDROSIS",
"SOMNOLENCE",
"ARTHRALGIA",
"BACK PAIN",
"COUGH",
"DIARRHOEA",
"DIZZINESS",
"ERYTHEMA",
"NASOPHARYNGITIS",
"SINUS BRADYCARDIA",
"EAR PAIN",
"ERYTHEMA",
"ERYTHEMA",
"PRURITUS",
"PRURITUS",
"SKIN IRRITATION",
"ATRIOVENTRICULAR BLOCK SECOND DEGREE",
"DERMATITIS CONTACT",
"SINUS BRADYCARDIA",
"NEPHROLITHIASIS",
"SINUS BRADYCARDIA",
"APPLICATION SITE REACTION",
"NAUSEA",
"SINUS BRADYCARDIA",
"CONFUSIONAL STATE",
"DIZZINESS",
"HYPERHIDROSIS",
"PALPITATIONS",
"SINUS BRADYCARDIA",
"EMPHYSEMA",
"NASOPHARYNGITIS",
"EAR INFECTION",
"EAR INFECTION",
"ELECTROCARDIOGRAM T WAVE AMPLITUDE DECREASED",
"ELECTROCARDIOGRAM T WAVE INVERSION",
"HYPERHIDROSIS",
"PRURITUS",
"CONFUSIONAL STATE",
"DIARRHOEA",
"FATIGUE",
"HYPERHIDROSIS",
"LETHARGY",
"PRURITUS",
"RESTLESSNESS",
"FATIGUE",
"HYPERSOMNIA",
"SYNCOPE",
"ATRIAL FLUTTER",
"BUNDLE BRANCH BLOCK RIGHT",
"VENTRICULAR SEPTAL DEFECT",
"BLISTER",
"BLISTER",
"ERYTHEMA",
"PRURITUS",
"ELECTROCARDIOGRAM ST SEGMENT DEPRESSION",
"PRURITUS",
"ERYTHEMA",
"MALIGNANT FIBROUS HISTIOCYTOMA",
"PRURITUS",
"ERYTHEMA",
"PRURITUS",
"UPPER RESPIRATORY TRACT INFECTION",
"ERYTHEMA",
"PRURITUS",
"BLISTER",
"HYPERSENSITIVITY",
"PRURITUS",
"SWELLING",
"ERYTHEMA",
"DELUSION",
"HALLUCINATION",
"PROSTATE CANCER",
"PRURITUS",
"BLOOD CHOLESTEROL INCREASED",
"PRURITUS",
"BLISTER",
"ERYTHEMA",
"PRURITUS",
"ERYTHEMA",
"ABDOMINAL PAIN",
"ERYTHEMA",
"ULCER",
"ERYTHEMA",
"PRURITUS",
"COGNITIVE DISORDER",
"PRURITUS",
"ERYTHEMA",
"HEADACHE",
"HEADACHE",
"PRURITUS",
"URTICARIA",
"VISION BLURRED",
"ERYTHEMA",
"CHEST PAIN",
"ELECTROCARDIOGRAM T WAVE INVERSION",
"ERYTHEMA",
"HYPERHIDROSIS",
"PRURITUS",
"ANXIETY",
"BACK PAIN",
"COUGH",
"DIARRHOEA",
"ENURESIS",
"FATIGUE",
"IRRITABILITY",
"RHINORRHOEA",
"SINUS BRADYCARDIA",
"SKIN IRRITATION",
"SKIN IRRITATION",
"SKIN IRRITATION",
"WOUND",
"CONFUSIONAL STATE",
"HYPERHIDROSIS",
"INCREASED APPETITE",
"INSOMNIA",
"PRURITUS GENERALISED",
"SKIN IRRITATION",
"VENTRICULAR EXTRASYSTOLES",
"INSOMNIA",
"PRURITUS",
"PRURITUS",
"RASH",
"SKIN IRRITATION",
"SKIN IRRITATION",
"ALOPECIA",
"SKIN IRRITATION",
"FATIGUE",
"NASAL CONGESTION",
"NAUSEA",
"VOMITING",
"APPLICATION SITE PERSPIRATION",
"DIZZINESS",
"DIZZINESS",
"NAUSEA",
"OEDEMA PERIPHERAL",
"SKIN IRRITATION",
"SKIN IRRITATION",
"VOMITING",
"ANXIETY",
"PAIN",
"PAIN",
"RASH",
"SINUS BRADYCARDIA",
"SKIN IRRITATION",
"AGITATION",
"INFLAMMATION",
"SYNCOPE",
"SYNCOPE",
"APPLICATION SITE IRRITATION",
"APPLICATION SITE IRRITATION",
"CONFUSIONAL STATE",
"HYPERHIDROSIS",
"MYOCARDIAL INFARCTION",
"SINUS BRADYCARDIA",
"VOMITING",
"DIARRHOEA",
"SOMNOLENCE",
"APPLICATION SITE IRRITATION",
"APPLICATION SITE IRRITATION",
"BRADYCARDIA",
"BRADYCARDIA",
"FOOD CRAVING",
"SINUS BRADYCARDIA",
"UPPER RESPIRATORY TRACT INFECTION",
"AGITATION",
"BODY TEMPERATURE INCREASED",
"DIZZINESS",
"HYPERHIDROSIS",
"HYPERTENSION",
"SYNCOPE",
"APPLICATION SITE PRURITUS",
"APPLICATION SITE PRURITUS",
"BALANCE DISORDER",
"BALANCE DISORDER",
"CONTUSION",
"CONTUSION",
"COORDINATION ABNORMAL",
"FALL",
"APPLICATION SITE DISCOLOURATION",
"APPLICATION SITE PRURITUS",
"ARTHRALGIA",
"ARTHRALGIA",
"DYSPHAGIA",
"FOOD CRAVING",
"SOMNOLENCE",
"APPLICATION SITE DERMATITIS",
"APPLICATION SITE IRRITATION",
"APPLICATION SITE IRRITATION",
"APPLICATION SITE IRRITATION",
"APPLICATION SITE DERMATITIS",
"APPLICATION SITE DERMATITIS",
"APPLICATION SITE DERMATITIS",
"APPLICATION SITE DERMATITIS",
"APPLICATION SITE REACTION",
"APPLICATION SITE REACTION",
"CONFUSIONAL STATE",
"DERMATITIS ATOPIC",
"HYPERTENSION",
"SKIN ULCER",
"SOMNOLENCE",
"APPLICATION SITE IRRITATION",
"APPLICATION SITE IRRITATION",
"FATIGUE",
null,
"NAUSEA",
"PARTIAL SEIZURES WITH SECONDARY GENERALISATION",
"AMNESIA",
"APPLICATION SITE DERMATITIS",
"APPLICATION SITE DERMATITIS",
"APPLICATION SITE PRURITUS",
"BACK PAIN",
"DECREASED APPETITE",
"LETHARGY",
"NAUSEA",
"NAUSEA",
"NAUSEA",
"NAUSEA",
"NAUSEA"  ],
"AEPTCD": [
null,
null,
null,
null,
null,
null,
null,
null,
null,
null,
null,
null,
null,
null,
null,
null,
null,
null,
null,
null,
null,
null,
null,
null,
null,
null,
null,
null,
null,
null,
null,
null,
null,
null,
null,
null,
null,
null,
null,
null,
null,
null,
null,
null,
null,
null,
null,
null,
null,
null,
null,
null,
null,
null,
null,
null,
null,
null,
null,
null,
null,
null,
null,
null,
null,
null,
null,
null,
null,
null,
null,
null,
null,
null,
null,
null,
null,
null,
null,
null,
null,
null,
null,
null,
null,
null,
null,
null,
null,
null,
null,
null,
null,
null,
null,
null,
null,
null,
null,
null,
null,
null,
null,
null,
null,
null,
null,
null,
null,
null,
null,
null,
null,
null,
null,
null,
null,
null,
null,
null,
null,
null,
null,
null,
null,
null,
null,
null,
null,
null,
null,
null,
null,
null,
null,
null,
null,
null,
null,
null,
null,
null,
null,
null,
null,
null,
null,
null,
null,
null,
null,
null,
null,
null,
null,
null,
null,
null,
null,
null,
null,
null,
null,
null,
null,
null,
null,
null,
null,
null,
null,
null,
null,
null,
null,
null,
null,
null,
null,
null,
null,
null,
null,
null,
null,
null,
null,
null,
null,
null,
null,
null,
null,
null,
null,
null,
null,
null,
null,
null,
null,
null,
null,
null,
null,
null,
null,
null,
null,
null,
null,
null,
null,
null,
null,
null,
null,
null,
null,
null,
null,
null,
null,
null,
null,
null,
null,
null,
null,
null,
null,
null,
null,
null,
null,
null,
null,
null,
null,
null,
null,
null,
null,
null,
null,
null,
null,
null,
null,
null,
null,
null,
null,
null,
null,
null,
null,
null,
null,
null,
null,
null,
null,
null,
null,
null,
null,
null,
null,
null,
null,
null,
null,
null,
null,
null,
null,
null,
null,
null,
null,
null,
null,
null,
null,
null,
null,
null,
null,
null,
null,
null,
null,
null,
null,
null,
null,
null,
null,
null,
null,
null,
null,
null,
null,
null,
null,
null,
null,
null,
null,
null,
null,
null,
null,
null,
null,
null,
null,
null,
null,
null,
null,
null,
null,
null,
null,
null,
null,
null,
null,
null,
null,
null,
null,
null,
null,
null,
null,
null,
null,
null,
null,
null,
null,
null,
null,
null,
null,
null,
null,
null,
null,
null,
null,
null,
null,
null,
null,
null,
null,
null,
null,
null,
null,
null,
null,
null,
null,
null,
null,
null,
null,
null,
null,
null,
null,
null,
null,
null,
null,
null,
null,
null,
null,
null,
null,
null,
null,
null,
null,
null,
null,
null,
null,
null,
null,
null,
null,
null,
null,
null,
null,
null,
null,
null,
null,
null,
null,
null,
null,
null,
null,
null,
null,
null,
null,
null,
null,
null,
null,
null,
null,
null,
null,
null,
null,
null,
null,
null,
null,
null,
null,
null,
null,
null,
null,
null,
null,
null,
null,
null,
null,
null,
null,
null,
null,
null,
null,
null,
null,
null,
null,
null,
null,
null,
null,
null,
null,
null,
null,
null,
null,
null,
null,
null,
null,
null,
null,
null,
null,
null,
null,
null,
null,
null,
null,
null,
null,
null,
null,
null,
null,
null,
null,
null,
null,
null,
null,
null,
null,
null,
null,
null,
null,
null,
null,
null,
null,
null,
null,
null,
null,
null,
null,
null,
null,
null,
null,
null,
null,
null,
null,
null,
null,
null,
null,
null,
null,
null,
null,
null,
null,
null,
null,
null,
null,
null,
null,
null,
null,
null,
null,
null,
null,
null,
null,
null,
null,
null,
null,
null,
null,
null,
null,
null,
null,
null,
null,
null,
null,
null,
null,
null,
null,
null,
null,
null,
null,
null,
null,
null,
null,
null,
null,
null,
null,
null,
null,
null,
null,
null,
null,
null,
null,
null,
null,
null,
null,
null,
null,
null,
null,
null,
null,
null,
null,
null,
null,
null,
null,
null,
null,
null,
null,
null,
null,
null,
null,
null,
null,
null,
null,
null,
null,
null,
null,
null,
null,
null,
null,
null,
null,
null,
null,
null,
null,
null,
null,
null,
null,
null,
null,
null,
null,
null,
null,
null,
null,
null,
null,
null,
null,
null,
null,
null,
null,
null,
null,
null,
null,
null,
null,
null,
null,
null,
null,
null,
null,
null,
null,
null,
null,
null,
null,
null,
null,
null,
null,
null,
null,
null,
null,
null,
null,
null,
null,
null,
null,
null,
null,
null,
null,
null,
null,
null,
null,
null,
null,
null,
null,
null,
null,
null,
null,
null,
null,
null,
null,
null,
null,
null,
null,
null,
null,
null,
null,
null,
null,
null,
null,
null,
null,
null,
null,
null,
null,
null,
null,
null,
null,
null,
null,
null,
null,
null,
null,
null,
null,
null,
null,
null,
null,
null,
null,
null,
null,
null,
null,
null,
null,
null,
null,
null,
null,
null,
null,
null,
null,
null,
null,
null,
null,
null,
null,
null,
null,
null,
null,
null,
null,
null,
null,
null,
null,
null,
null,
null,
null,
null,
null,
null,
null,
null,
null,
null,
null,
null,
null,
null,
null,
null,
null,
null,
null,
null,
null,
null,
null,
null,
null,
null,
null,
null,
null,
null,
null,
null,
null,
null,
null,
null,
null,
null,
null,
null,
null,
null,
null,
null,
null,
null,
null,
null,
null,
null,
null,
null,
null,
null,
null,
null,
null,
null,
null,
null,
null,
null,
null,
null,
null,
null,
null,
null,
null,
null,
null,
null,
null,
null,
null,
null,
null,
null,
null,
null,
null,
null,
null,
null,
null,
null,
null,
null,
null,
null,
null,
null,
null,
null,
null,
null,
null,
null,
null,
null,
null,
null,
null,
null,
null,
null,
null,
null,
null,
null,
null,
null,
null,
null,
null,
null,
null,
null,
null,
null,
null,
null,
null,
null,
null,
null,
null,
null,
null,
null,
null,
null,
null,
null,
null,
null,
null,
null,
null,
null,
null,
null,
null,
null,
null,
null,
null,
null,
null,
null,
null,
null,
null,
null,
null,
null,
null,
null,
null,
null,
null,
null,
null,
null,
null,
null,
null,
null,
null,
null,
null,
null,
null,
null,
null,
null,
null,
null,
null,
null,
null,
null,
null,
null,
null,
null,
null,
null,
null,
null,
"HALLUCINATION",
null,
null,
null,
null,
null,
null,
null,
null,
null,
null,
null,
null,
null,
null  ],
"AEHLT": [
"HLT_0617",
"HLT_0317",
"HLT_0148",
"HLT_0415",
"HLT_0284",
"HLT_0284",
"HLT_0617",
"HLT_0317",
"HLT_0317",
"HLT_0043",
"HLT_0281",
"HLT_0159",
"HLT_0520",
"HLT_0317",
"HLT_0317",
"HLT_0180",
"HLT_0284",
"HLT_0118",
"HLT_0130",
"HLT_0123",
"HLT_0123",
"HLT_0123",
"HLT_0123",
"HLT_0375",
"HLT_0613",
"HLT_0284",
"HLT_0435",
"HLT_0294",
"HLT_0778",
"HLT_0343",
"HLT_0617",
"HLT_0617",
"HLT_0061",
"HLT_0061",
"HLT_0317",
"HLT_0317",
"HLT_0043",
"HLT_0701",
"HLT_0256",
"HLT_0523",
"HLT_0008",
"HLT_0118",
"HLT_0778",
"HLT_0310",
"HLT_0161",
"HLT_0617",
"HLT_0617",
"HLT_0317",
"HLT_0317",
"HLT_0617",
"HLT_0617",
"HLT_0061",
"HLT_0061",
"HLT_0342",
"HLT_0317",
"HLT_0317",
"HLT_0180",
"HLT_0043",
"HLT_0762",
"HLT_0609",
"HLT_0617",
"HLT_0317",
"HLT_0550",
"HLT_0784",
"HLT_0244",
"HLT_0386",
"HLT_0484",
"HLT_0052",
"HLT_0566",
"HLT_0617",
"HLT_0317",
"HLT_0180",
"HLT_0064",
"HLT_0294",
"HLT_0036",
"HLT_0016",
"HLT_0140",
"HLT_0196",
"HLT_0284",
"HLT_0284",
"HLT_0778",
"HLT_0778",
"HLT_0420",
"HLT_0420",
"HLT_0420",
"HLT_0617",
"HLT_0061",
"HLT_0317",
"HLT_0701",
"HLT_0701",
"HLT_0284",
"HLT_0444",
"HLT_0680",
"HLT_0251",
"HLT_0683",
"HLT_0355",
"HLT_0617",
"HLT_0317",
"HLT_0642",
"HLT_0296",
"HLT_0560",
"HLT_0035",
"HLT_0527",
"HLT_0075",
"HLT_0142",
"HLT_0061",
"HLT_0284",
"HLT_0284",
"HLT_0043",
"HLT_0604",
"HLT_0778",
"HLT_0510",
"HLT_0520",
"HLT_0701",
"HLT_0284",
"HLT_0118",
"HLT_0742",
"HLT_0258",
"HLT_0778",
"HLT_0374",
"HLT_0016",
"HLT_0617",
"HLT_0317",
"HLT_0635",
"HLT_0374",
"HLT_0617",
"HLT_0617",
"HLT_0317",
"HLT_0317",
"HLT_0317",
"HLT_0336",
"HLT_0617",
"HLT_0283",
"HLT_0317",
"HLT_0713",
"HLT_0619",
"HLT_0619",
"HLT_0386",
"HLT_0524",
"HLT_0064",
"HLT_0587",
"HLT_0338",
"HLT_0657",
"HLT_0456",
"HLT_0456",
"HLT_0700",
"HLT_0118",
"HLT_0314",
"HLT_0130",
"HLT_0545",
"HLT_0330",
"HLT_0239",
"HLT_0065",
"HLT_0617",
"HLT_0317",
"HLT_0196",
"HLT_0763",
"HLT_0784",
"HLT_0784",
"HLT_0073",
"HLT_0043",
"HLT_0275",
"HLT_0617",
"HLT_0317",
"HLT_0180",
"HLT_0617",
"HLT_0617",
"HLT_0061",
"HLT_0317",
"HLT_0317",
"HLT_0617",
"HLT_0317",
"HLT_0180",
"HLT_0317",
"HLT_0115",
"HLT_0064",
"HLT_0064",
"HLT_0742",
"HLT_0617",
"HLT_0617",
"HLT_0061",
"HLT_0061",
"HLT_0342",
"HLT_0317",
"HLT_0317",
"HLT_0317",
"HLT_0180",
"HLT_0593",
"HLT_0701",
"HLT_0064",
"HLT_0148",
"HLT_0587",
"HLT_0520",
"HLT_0148",
"HLT_0294",
"HLT_0520",
"HLT_0520",
"HLT_0317",
"HLT_0617",
"HLT_0617",
"HLT_0061",
"HLT_0317",
"HLT_0317",
"HLT_0180",
"HLT_0481",
"HLT_0374",
"HLT_0061",
"HLT_0326",
"HLT_0353",
"HLT_0583",
"HLT_0783",
"HLT_0417",
"HLT_0148",
"HLT_0297",
"HLT_0343",
"HLT_0317",
"HLT_0317",
"HLT_0215",
"HLT_0553",
"HLT_0025",
"HLT_0587",
"HLT_0061",
"HLT_0061",
"HLT_0061",
"HLT_0586",
"HLT_0061",
"HLT_0061",
"HLT_0432",
"HLT_0661",
"HLT_0661",
"HLT_0520",
"HLT_0061",
"HLT_0061",
"HLT_0778",
"HLT_0778",
"HLT_0415",
"HLT_0617",
"HLT_0617",
"HLT_0160",
"HLT_0160",
"HLT_0574",
"HLT_0574",
"HLT_0299",
"HLT_0343",
"HLT_0343",
"HLT_0619",
"HLT_0619",
"HLT_0520",
"HLT_0019",
"HLT_0556",
"HLT_0761",
"HLT_0761",
"HLT_0649",
"HLT_0082",
"HLT_0082",
"HLT_0520",
"HLT_0415",
"HLT_0593",
"HLT_0148",
"HLT_0016",
"HLT_0158",
"HLT_0061",
"HLT_0061",
"HLT_0587",
"HLT_0644",
"HLT_0041",
"HLT_0619",
"HLT_0043",
"HLT_0456",
"HLT_0742",
"HLT_0762",
"HLT_0375",
"HLT_0713",
"HLT_0739",
"HLT_0148",
"HLT_0738",
"HLT_0075",
"HLT_0016",
"HLT_0507",
"HLT_0125",
"HLT_0649",
"HLT_0778",
"HLT_0762",
"HLT_0589",
"HLT_0610",
"HLT_0493",
"HLT_0255",
"HLT_0612",
"HLT_0012",
"HLT_0061",
"HLT_0317",
"HLT_0586",
"HLT_0148",
"HLT_0619",
"HLT_0587",
"HLT_0456",
"HLT_0762",
"HLT_0644",
"HLT_0284",
"HLT_0778",
"HLT_0450",
"HLT_0778",
"HLT_0762",
"HLT_0284",
"HLT_0125",
"HLT_0656",
"HLT_0778",
"HLT_0762",
"HLT_0036",
"HLT_0778",
"HLT_0778",
"HLT_0762",
"HLT_0762",
"HLT_0762",
"HLT_0762",
"HLT_0125",
"HLT_0661",
"HLT_0450",
"HLT_0296",
"HLT_0762",
"HLT_0365",
"HLT_0477",
"HLT_0752",
"HLT_0284",
"HLT_0284",
"HLT_0284",
"HLT_0587",
"HLT_0778",
"HLT_0714",
"HLT_0656",
"HLT_0778",
"HLT_0762",
"HLT_0733",
"HLT_0778",
"HLT_0762",
"HLT_0775",
"HLT_0778",
"HLT_0762",
"HLT_0762",
"HLT_0356",
"HLT_0393",
"HLT_0064",
"HLT_0279",
"HLT_0625",
"HLT_0762",
"HLT_0284",
"HLT_0478",
"HLT_0244",
"HLT_0778",
"HLT_0738",
"HLT_0778",
"HLT_0778",
"HLT_0284",
"HLT_0778",
"HLT_0778",
"HLT_0762",
"HLT_0762",
"HLT_0127",
"HLT_0154",
"HLT_0610",
"HLT_0742",
"HLT_0104",
"HLT_0016",
"HLT_0217",
"HLT_0597",
"HLT_0778",
"HLT_0559",
"HLT_0336",
"HLT_0559",
"HLT_0559",
"HLT_0148",
"HLT_0738",
"HLT_0627",
"HLT_0778",
"HLT_0440",
"HLT_0440",
"HLT_0284",
"HLT_0284",
"HLT_0738",
"HLT_0778",
"HLT_0778",
"HLT_0404",
"HLT_0584",
"HLT_0172",
"HLT_0094",
"HLT_0619",
"HLT_0064",
"HLT_0595",
"HLT_0041",
"HLT_0120",
"HLT_0180",
"HLT_0619",
"HLT_0649",
"HLT_0644",
"HLT_0619",
"HLT_0064",
"HLT_0765",
"HLT_0765",
"HLT_0140",
"HLT_0284",
"HLT_0138",
"HLT_0317",
"HLT_0365",
"HLT_0739",
"HLT_0619",
"HLT_0484",
"HLT_0036",
"HLT_0589",
"HLT_0365",
"HLT_0617",
"HLT_0317",
"HLT_0105",
"HLT_0584",
"HLT_0701",
"HLT_0619",
"HLT_0646",
"HLT_0343",
"HLT_0701",
"HLT_0148",
"HLT_0064",
"HLT_0737",
"HLT_0078",
"HLT_0036",
"HLT_0050",
"HLT_0217",
"HLT_0317",
"HLT_0402",
"HLT_0649",
"HLT_0317",
"HLT_0180",
"HLT_0271",
"HLT_0213",
"HLT_0317",
"HLT_0105",
"HLT_0644",
"HLT_0617",
"HLT_0064",
"HLT_0617",
"HLT_0317",
"HLT_0317",
"HLT_0619",
"HLT_0619",
"HLT_0617",
"HLT_0105",
"HLT_0284",
"HLT_0778",
"HLT_0317",
"HLT_0649",
"HLT_0619",
"HLT_0761",
"HLT_0415",
"HLT_0661",
"HLT_0617",
"HLT_0617",
"HLT_0317",
"HLT_0317",
"HLT_0260",
"HLT_0260",
"HLT_0386",
"HLT_0343",
"HLT_0343",
"HLT_0148",
"HLT_0217",
"HLT_0343",
"HLT_0317",
"HLT_0148",
"HLT_0617",
"HLT_0701",
"HLT_0078",
"HLT_0649",
"HLT_0649",
"HLT_0649",
"HLT_0591",
"HLT_0778",
"HLT_0644",
"HLT_0644",
"HLT_0661",
"HLT_0762",
"HLT_0343",
"HLT_0762",
"HLT_0629",
"HLT_0343",
"HLT_0343",
"HLT_0317",
"HLT_0317",
"HLT_0180",
"HLT_0036",
"HLT_0343",
"HLT_0343",
"HLT_0317",
"HLT_0317",
"HLT_0180",
"HLT_0619",
"HLT_0778",
"HLT_0762",
"HLT_0583",
"HLT_0343",
"HLT_0343",
"HLT_0701",
"HLT_0619",
"HLT_0619",
"HLT_0619",
"HLT_0289",
"HLT_0064",
"HLT_0778",
"HLT_0343",
"HLT_0200",
"HLT_0317",
"HLT_0701",
"HLT_0148",
"HLT_0097",
"HLT_0498",
"HLT_0520",
"HLT_0215",
"HLT_0215",
"HLT_0458",
"HLT_0436",
"HLT_0533",
"HLT_0761",
"HLT_0435",
"HLT_0194",
"HLT_0310",
"HLT_0343",
"HLT_0317",
"HLT_0639",
"HLT_0644",
"HLT_0447",
"HLT_0061",
"HLT_0317",
"HLT_0317",
"HLT_0430",
"HLT_0762",
"HLT_0762",
"HLT_0114",
"HLT_0317",
"HLT_0685",
"HLT_0619",
"HLT_0340",
"HLT_0118",
"HLT_0186",
"HLT_0500",
"HLT_0500",
"HLT_0549",
"HLT_0016",
"HLT_0343",
"HLT_0610",
"HLT_0718",
"HLT_0343",
"HLT_0317",
"HLT_0701",
"HLT_0440",
"HLT_0016",
"HLT_0619",
"HLT_0310",
"HLT_0615",
"HLT_0064",
"HLT_0440",
"HLT_0041",
"HLT_0713",
"HLT_0619",
"HLT_0619",
"HLT_0305",
"HLT_0168",
"HLT_0439",
"HLT_0778",
"HLT_0374",
"HLT_0644",
"HLT_0583",
"HLT_0161",
"HLT_0717",
"HLT_0778",
"HLT_0192",
"HLT_0020",
"HLT_0284",
"HLT_0036",
"HLT_0778",
"HLT_0762",
"HLT_0236",
"HLT_0583",
"HLT_0016",
"HLT_0778",
"HLT_0762",
"HLT_0696",
"HLT_0317",
"HLT_0317",
"HLT_0168",
"HLT_0168",
"HLT_0297",
"HLT_0118",
"HLT_0284",
"HLT_0354",
"HLT_0097",
"HLT_0778",
"HLT_0762",
"HLT_0188",
"HLT_0140",
"HLT_0343",
"HLT_0019",
"HLT_0019",
"HLT_0583",
"HLT_0649",
"HLT_0284",
"HLT_0064",
"HLT_0778",
"HLT_0255",
"HLT_0619",
"HLT_0064",
"HLT_0649",
"HLT_0742",
"HLT_0003",
"HLT_0583",
"HLT_0583",
"HLT_0558",
"HLT_0168",
"HLT_0075",
"HLT_0440",
"HLT_0440",
"HLT_0419",
"HLT_0644",
"HLT_0061",
"HLT_0317",
"HLT_0701",
"HLT_0527",
"HLT_0284",
"HLT_0778",
"HLT_0778",
"HLT_0778",
"HLT_0586",
"HLT_0586",
"HLT_0586",
"HLT_0124",
"HLT_0124",
"HLT_0124",
"HLT_0148",
"HLT_0778",
"HLT_0762",
"HLT_0284",
"HLT_0778",
"HLT_0365",
"HLT_0511",
"HLT_0296",
"HLT_0688",
"HLT_0649",
"HLT_0617",
"HLT_0775",
"HLT_0762",
"HLT_0160",
"HLT_0016",
"HLT_0061",
"HLT_0752",
"HLT_0284",
"HLT_0778",
"HLT_0036",
"HLT_0284",
"HLT_0064",
"HLT_0778",
"HLT_0762",
"HLT_0284",
"HLT_0778",
"HLT_0351",
"HLT_0778",
"HLT_0762",
"HLT_0198",
"HLT_0097",
"HLT_0383",
"HLT_0365",
"HLT_0419",
"HLT_0752",
"HLT_0037",
"HLT_0778",
"HLT_0762",
"HLT_0692",
"HLT_0284",
"HLT_0036",
"HLT_0343",
"HLT_0343",
"HLT_0317",
"HLT_0317",
"HLT_0196",
"HLT_0036",
"HLT_0757",
"HLT_0250",
"HLT_0064",
"HLT_0343",
"HLT_0018",
"HLT_0013",
"HLT_0036",
"HLT_0036",
"HLT_0727",
"HLT_0127",
"HLT_0188",
"HLT_0570",
"HLT_0050",
"HLT_0205",
"HLT_0228",
"HLT_0228",
"HLT_0617",
"HLT_0617",
"HLT_0432",
"HLT_0742",
"HLT_0016",
"HLT_0317",
"HLT_0115",
"HLT_0376",
"HLT_0127",
"HLT_0205",
"HLT_0205",
"HLT_0651",
"HLT_0244",
"HLT_0244",
"HLT_0637",
"HLT_0211",
"HLT_0407",
"HLT_0189",
"HLT_0161",
"HLT_0508",
"HLT_0217",
"HLT_0217",
"HLT_0317",
"HLT_0619",
"HLT_0343",
"HLT_0617",
"HLT_0701",
"HLT_0762",
"HLT_0762",
"HLT_0527",
"HLT_0527",
"HLT_0061",
"HLT_0742",
"HLT_0634",
"HLT_0751",
"HLT_0610",
"HLT_0289",
"HLT_0188",
"HLT_0617",
"HLT_0617",
"HLT_0317",
"HLT_0317",
"HLT_0583",
"HLT_0617",
"HLT_0317",
"HLT_0148",
"HLT_0637",
"HLT_0587",
"HLT_0160",
"HLT_0375",
"HLT_0115",
"HLT_0701",
"HLT_0148",
"HLT_0619",
"HLT_0284",
"HLT_0036",
"HLT_0644",
"HLT_0631",
"HLT_0284",
"HLT_0284",
"HLT_0778",
"HLT_0778",
"HLT_0583",
"HLT_0415",
"HLT_0056",
"HLT_0644",
"HLT_0439",
"HLT_0644",
"HLT_0339",
"HLT_0742",
"HLT_0644",
"HLT_0642",
"HLT_0619",
"HLT_0587",
"HLT_0493",
"HLT_0644",
"HLT_0698",
"HLT_0036",
"HLT_0757",
"HLT_0757",
"HLT_0037",
"HLT_0289",
"HLT_0587",
"HLT_0778",
"HLT_0642",
"HLT_0148",
"HLT_0043",
"HLT_0587",
"HLT_0027",
"HLT_0778",
"HLT_0427",
"HLT_0043",
"HLT_0231",
"HLT_0440",
"HLT_0477",
"HLT_0751",
"HLT_0589",
"HLT_0752",
"HLT_0752",
"HLT_0284",
"HLT_0778",
"HLT_0610",
"HLT_0778",
"HLT_0284",
"HLT_0245",
"HLT_0778",
"HLT_0284",
"HLT_0778",
"HLT_0520",
"HLT_0284",
"HLT_0778",
"HLT_0752",
"HLT_0473",
"HLT_0778",
"HLT_0658",
"HLT_0284",
"HLT_0198",
"HLT_0026",
"HLT_0412",
"HLT_0778",
"HLT_0210",
"HLT_0778",
"HLT_0752",
"HLT_0284",
"HLT_0778",
"HLT_0284",
"HLT_0217",
"HLT_0284",
"HLT_0040",
"HLT_0284",
"HLT_0778",
"HLT_0265",
"HLT_0778",
"HLT_0284",
"HLT_0064",
"HLT_0064",
"HLT_0778",
"HLT_0420",
"HLT_0120",
"HLT_0284",
"HLT_0717",
"HLT_0289",
"HLT_0284",
"HLT_0587",
"HLT_0778",
"HLT_0559",
"HLT_0115",
"HLT_0701",
"HLT_0148",
"HLT_0107",
"HLT_0043",
"HLT_0627",
"HLT_0635",
"HLT_0644",
"HLT_0583",
"HLT_0583",
"HLT_0583",
"HLT_0542",
"HLT_0642",
"HLT_0587",
"HLT_0566",
"HLT_0297",
"HLT_0123",
"HLT_0583",
"HLT_0050",
"HLT_0297",
"HLT_0778",
"HLT_0778",
"HLT_0762",
"HLT_0583",
"HLT_0583",
"HLT_0077",
"HLT_0583",
"HLT_0043",
"HLT_0118",
"HLT_0742",
"HLT_0016",
"HLT_0283",
"HLT_0619",
"HLT_0619",
"HLT_0742",
"HLT_0661",
"HLT_0583",
"HLT_0583",
"HLT_0016",
"HLT_0559",
"HLT_0314",
"HLT_0314",
"HLT_0762",
"HLT_0644",
"HLT_0583",
"HLT_0140",
"HLT_0582",
"HLT_0440",
"HLT_0440",
"HLT_0061",
"HLT_0061",
"HLT_0642",
"HLT_0587",
"HLT_0649",
"HLT_0644",
"HLT_0016",
"HLT_0148",
"HLT_0160",
"HLT_0061",
"HLT_0061",
"HLT_0640",
"HLT_0640",
"HLT_0754",
"HLT_0644",
"HLT_0520",
"HLT_0140",
"HLT_0734",
"HLT_0619",
"HLT_0587",
"HLT_0228",
"HLT_0440",
"HLT_0317",
"HLT_0317",
"HLT_0541",
"HLT_0541",
"HLT_0713",
"HLT_0713",
"HLT_0315",
"HLT_0168",
"HLT_0121",
"HLT_0317",
"HLT_0375",
"HLT_0375",
"HLT_0563",
"HLT_0754",
"HLT_0160",
"HLT_0343",
"HLT_0061",
"HLT_0061",
"HLT_0061",
"HLT_0343",
"HLT_0343",
"HLT_0343",
"HLT_0343",
"HLT_0339",
"HLT_0339",
"HLT_0642",
"HLT_0480",
"HLT_0228",
"HLT_0005",
"HLT_0160",
"HLT_0061",
"HLT_0061",
"HLT_0043",
"VISUAL",
"HLT_0742",
"HLT_0603",
"HLT_0501",
"HLT_0343",
"HLT_0343",
"HLT_0317",
"HLT_0115",
"HLT_0574",
"HLT_0027",
"HLT_0742",
"HLT_0742",
"HLT_0742",
"HLT_0742",
"HLT_0742"  ],
"AEHLTCD": [
null,
null,
null,
null,
null,
null,
null,
null,
null,
null,
null,
null,
null,
null,
null,
null,
null,
null,
null,
null,
null,
null,
null,
null,
null,
null,
null,
null,
null,
null,
null,
null,
null,
null,
null,
null,
null,
null,
null,
null,
null,
null,
null,
null,
null,
null,
null,
null,
null,
null,
null,
null,
null,
null,
null,
null,
null,
null,
null,
null,
null,
null,
null,
null,
null,
null,
null,
null,
null,
null,
null,
null,
null,
null,
null,
null,
null,
null,
null,
null,
null,
null,
null,
null,
null,
null,
null,
null,
null,
null,
null,
null,
null,
null,
null,
null,
null,
null,
null,
null,
null,
null,
null,
null,
null,
null,
null,
null,
null,
null,
null,
null,
null,
null,
null,
null,
null,
null,
null,
null,
null,
null,
null,
null,
null,
null,
null,
null,
null,
null,
null,
null,
null,
null,
null,
null,
null,
null,
null,
null,
null,
null,
null,
null,
null,
null,
null,
null,
null,
null,
null,
null,
null,
null,
null,
null,
null,
null,
null,
null,
null,
null,
null,
null,
null,
null,
null,
null,
null,
null,
null,
null,
null,
null,
null,
null,
null,
null,
null,
null,
null,
null,
null,
null,
null,
null,
null,
null,
null,
null,
null,
null,
null,
null,
null,
null,
null,
null,
null,
null,
null,
null,
null,
null,
null,
null,
null,
null,
null,
null,
null,
null,
null,
null,
null,
null,
null,
null,
null,
null,
null,
null,
null,
null,
null,
null,
null,
null,
null,
null,
null,
null,
null,
null,
null,
null,
null,
null,
null,
null,
null,
null,
null,
null,
null,
null,
null,
null,
null,
null,
null,
null,
null,
null,
null,
null,
null,
null,
null,
null,
null,
null,
null,
null,
null,
null,
null,
null,
null,
null,
null,
null,
null,
null,
null,
null,
null,
null,
null,
null,
null,
null,
null,
null,
null,
null,
null,
null,
null,
null,
null,
null,
null,
null,
null,
null,
null,
null,
null,
null,
null,
null,
null,
null,
null,
null,
null,
null,
null,
null,
null,
null,
null,
null,
null,
null,
null,
null,
null,
null,
null,
null,
null,
null,
null,
null,
null,
null,
null,
null,
null,
null,
null,
null,
null,
null,
null,
null,
null,
null,
null,
null,
null,
null,
null,
null,
null,
null,
null,
null,
null,
null,
null,
null,
null,
null,
null,
null,
null,
null,
null,
null,
null,
null,
null,
null,
null,
null,
null,
null,
null,
null,
null,
null,
null,
null,
null,
null,
null,
null,
null,
null,
null,
null,
null,
null,
null,
null,
null,
null,
null,
null,
null,
null,
null,
null,
null,
null,
null,
null,
null,
null,
null,
null,
null,
null,
null,
null,
null,
null,
null,
null,
null,
null,
null,
null,
null,
null,
null,
null,
null,
null,
null,
null,
null,
null,
null,
null,
null,
null,
null,
null,
null,
null,
null,
null,
null,
null,
null,
null,
null,
null,
null,
null,
null,
null,
null,
null,
null,
null,
null,
null,
null,
null,
null,
null,
null,
null,
null,
null,
null,
null,
null,
null,
null,
null,
null,
null,
null,
null,
null,
null,
null,
null,
null,
null,
null,
null,
null,
null,
null,
null,
null,
null,
null,
null,
null,
null,
null,
null,
null,
null,
null,
null,
null,
null,
null,
null,
null,
null,
null,
null,
null,
null,
null,
null,
null,
null,
null,
null,
null,
null,
null,
null,
null,
null,
null,
null,
null,
null,
null,
null,
null,
null,
null,
null,
null,
null,
null,
null,
null,
null,
null,
null,
null,
null,
null,
null,
null,
null,
null,
null,
null,
null,
null,
null,
null,
null,
null,
null,
null,
null,
null,
null,
null,
null,
null,
null,
null,
null,
null,
null,
null,
null,
null,
null,
null,
null,
null,
null,
null,
null,
null,
null,
null,
null,
null,
null,
null,
null,
null,
null,
null,
null,
null,
null,
null,
null,
null,
null,
null,
null,
null,
null,
null,
null,
null,
null,
null,
null,
null,
null,
null,
null,
null,
null,
null,
null,
null,
null,
null,
null,
null,
null,
null,
null,
null,
null,
null,
null,
null,
null,
null,
null,
null,
null,
null,
null,
null,
null,
null,
null,
null,
null,
null,
null,
null,
null,
null,
null,
null,
null,
null,
null,
null,
null,
null,
null,
null,
null,
null,
null,
null,
null,
null,
null,
null,
null,
null,
null,
null,
null,
null,
null,
null,
null,
null,
null,
null,
null,
null,
null,
null,
null,
null,
null,
null,
null,
null,
null,
null,
null,
null,
null,
null,
null,
null,
null,
null,
null,
null,
null,
null,
null,
null,
null,
null,
null,
null,
null,
null,
null,
null,
null,
null,
null,
null,
null,
null,
null,
null,
null,
null,
null,
null,
null,
null,
null,
null,
null,
null,
null,
null,
null,
null,
null,
null,
null,
null,
null,
null,
null,
null,
null,
null,
null,
null,
null,
null,
null,
null,
null,
null,
null,
null,
null,
null,
null,
null,
null,
null,
null,
null,
null,
null,
null,
null,
null,
null,
null,
null,
null,
null,
null,
null,
null,
null,
null,
null,
null,
null,
null,
null,
null,
null,
null,
null,
null,
null,
null,
null,
null,
null,
null,
null,
null,
null,
null,
null,
null,
null,
null,
null,
null,
null,
null,
null,
null,
null,
null,
null,
null,
null,
null,
null,
null,
null,
null,
null,
null,
null,
null,
null,
null,
null,
null,
null,
null,
null,
null,
null,
null,
null,
null,
null,
null,
null,
null,
null,
null,
null,
null,
null,
null,
null,
null,
null,
null,
null,
null,
null,
null,
null,
null,
null,
null,
null,
null,
null,
null,
null,
null,
null,
null,
null,
null,
null,
null,
null,
null,
null,
null,
null,
null,
null,
null,
null,
null,
null,
null,
null,
null,
null,
null,
null,
null,
null,
null,
null,
null,
null,
null,
null,
null,
null,
null,
null,
null,
null,
null,
null,
null,
null,
null,
null,
null,
null,
null,
null,
null,
null,
null,
null,
null,
null,
null,
null,
null,
null,
null,
null,
null,
null,
null,
null,
null,
null,
null,
null,
null,
null,
null,
null,
null,
null,
null,
null,
null,
null,
null,
null,
null,
null,
null,
null,
null,
null,
null,
null,
null,
null,
null,
null,
null,
null,
null,
null,
null,
null,
null,
null,
null,
null,
null,
null,
null,
null,
null,
null,
null,
null  ],
"AEHLGT": [
"HLGT_0152",
"HLGT_0338",
"HLGT_0588",
"HLGT_0086",
"HLGT_0192",
"HLGT_0192",
"HLGT_0152",
"HLGT_0338",
"HLGT_0338",
"HLGT_0181",
"HLGT_0721",
"HLGT_0109",
"HLGT_0489",
"HLGT_0338",
"HLGT_0338",
"HLGT_0576",
"HLGT_0192",
"HLGT_0549",
"HLGT_0402",
"HLGT_0689",
"HLGT_0689",
"HLGT_0689",
"HLGT_0689",
"HLGT_0610",
"HLGT_0066",
"HLGT_0192",
"HLGT_0557",
"HLGT_0483",
"HLGT_0695",
"HLGT_0241",
"HLGT_0152",
"HLGT_0152",
"HLGT_0346",
"HLGT_0346",
"HLGT_0338",
"HLGT_0338",
"HLGT_0181",
"HLGT_0280",
"HLGT_0071",
"HLGT_0240",
"HLGT_0466",
"HLGT_0549",
"HLGT_0695",
"HLGT_0652",
"HLGT_0093",
"HLGT_0152",
"HLGT_0152",
"HLGT_0338",
"HLGT_0338",
"HLGT_0152",
"HLGT_0152",
"HLGT_0346",
"HLGT_0346",
"HLGT_0085",
"HLGT_0338",
"HLGT_0338",
"HLGT_0576",
"HLGT_0181",
"HLGT_0198",
"HLGT_0490",
"HLGT_0152",
"HLGT_0338",
"HLGT_0414",
"HLGT_0122",
"HLGT_0716",
"HLGT_0577",
"HLGT_0543",
"HLGT_0217",
"HLGT_0769",
"HLGT_0152",
"HLGT_0338",
"HLGT_0576",
"HLGT_0344",
"HLGT_0483",
"HLGT_0709",
"HLGT_0350",
"HLGT_0170",
"HLGT_0233",
"HLGT_0192",
"HLGT_0192",
"HLGT_0695",
"HLGT_0695",
"HLGT_0705",
"HLGT_0705",
"HLGT_0705",
"HLGT_0152",
"HLGT_0346",
"HLGT_0338",
"HLGT_0280",
"HLGT_0280",
"HLGT_0192",
"HLGT_0211",
"HLGT_0396",
"HLGT_0671",
"HLGT_0575",
"HLGT_0189",
"HLGT_0152",
"HLGT_0338",
"HLGT_0329",
"HLGT_0255",
"HLGT_0503",
"HLGT_0227",
"HLGT_0288",
"HLGT_0118",
"HLGT_0272",
"HLGT_0346",
"HLGT_0192",
"HLGT_0192",
"HLGT_0181",
"HLGT_0290",
"HLGT_0695",
"HLGT_0184",
"HLGT_0489",
"HLGT_0280",
"HLGT_0192",
"HLGT_0549",
"HLGT_0326",
"HLGT_0471",
"HLGT_0695",
"HLGT_0488",
"HLGT_0350",
"HLGT_0152",
"HLGT_0338",
"HLGT_0460",
"HLGT_0488",
"HLGT_0152",
"HLGT_0152",
"HLGT_0338",
"HLGT_0338",
"HLGT_0338",
"HLGT_0701",
"HLGT_0152",
"HLGT_0403",
"HLGT_0338",
"HLGT_0381",
"HLGT_0751",
"HLGT_0751",
"HLGT_0577",
"HLGT_0749",
"HLGT_0344",
"HLGT_0005",
"HLGT_0496",
"HLGT_0124",
"HLGT_0178",
"HLGT_0178",
"HLGT_0121",
"HLGT_0549",
"HLGT_0478",
"HLGT_0402",
"HLGT_0681",
"HLGT_0424",
"HLGT_0322",
"HLGT_0183",
"HLGT_0152",
"HLGT_0338",
"HLGT_0233",
"HLGT_0341",
"HLGT_0122",
"HLGT_0122",
"HLGT_0274",
"HLGT_0181",
"HLGT_0243",
"HLGT_0152",
"HLGT_0338",
"HLGT_0576",
"HLGT_0152",
"HLGT_0152",
"HLGT_0346",
"HLGT_0338",
"HLGT_0338",
"HLGT_0152",
"HLGT_0338",
"HLGT_0576",
"HLGT_0338",
"HLGT_0508",
"HLGT_0344",
"HLGT_0344",
"HLGT_0326",
"HLGT_0152",
"HLGT_0152",
"HLGT_0346",
"HLGT_0346",
"HLGT_0085",
"HLGT_0338",
"HLGT_0338",
"HLGT_0338",
"HLGT_0576",
"HLGT_0441",
"HLGT_0280",
"HLGT_0344",
"HLGT_0588",
"HLGT_0005",
"HLGT_0489",
"HLGT_0588",
"HLGT_0483",
"HLGT_0489",
"HLGT_0489",
"HLGT_0338",
"HLGT_0152",
"HLGT_0152",
"HLGT_0346",
"HLGT_0338",
"HLGT_0338",
"HLGT_0576",
"HLGT_0534",
"HLGT_0488",
"HLGT_0346",
"HLGT_0625",
"HLGT_0755",
"HLGT_0384",
"HLGT_0295",
"HLGT_0465",
"HLGT_0588",
"HLGT_0469",
"HLGT_0241",
"HLGT_0338",
"HLGT_0338",
"HLGT_0568",
"HLGT_0725",
"HLGT_0703",
"HLGT_0005",
"HLGT_0346",
"HLGT_0346",
"HLGT_0346",
"HLGT_0161",
"HLGT_0346",
"HLGT_0346",
"HLGT_0058",
"HLGT_0137",
"HLGT_0137",
"HLGT_0489",
"HLGT_0346",
"HLGT_0346",
"HLGT_0695",
"HLGT_0695",
"HLGT_0086",
"HLGT_0152",
"HLGT_0152",
"HLGT_0254",
"HLGT_0254",
"HLGT_0231",
"HLGT_0231",
"HLGT_0307",
"HLGT_0241",
"HLGT_0241",
"HLGT_0751",
"HLGT_0751",
"HLGT_0489",
"HLGT_0587",
"HLGT_0734",
"HLGT_0412",
"HLGT_0412",
"HLGT_0688",
"HLGT_0574",
"HLGT_0574",
"HLGT_0489",
"HLGT_0086",
"HLGT_0441",
"HLGT_0588",
"HLGT_0350",
"HLGT_0778",
"HLGT_0346",
"HLGT_0346",
"HLGT_0005",
"HLGT_0500",
"HLGT_0433",
"HLGT_0751",
"HLGT_0181",
"HLGT_0178",
"HLGT_0326",
"HLGT_0198",
"HLGT_0610",
"HLGT_0381",
"HLGT_0129",
"HLGT_0588",
"HLGT_0511",
"HLGT_0118",
"HLGT_0350",
"HLGT_0126",
"HLGT_0081",
"HLGT_0688",
"HLGT_0695",
"HLGT_0198",
"HLGT_0747",
"HLGT_0220",
"HLGT_0593",
"HLGT_0147",
"HLGT_0218",
"HLGT_0332",
"HLGT_0346",
"HLGT_0338",
"HLGT_0161",
"HLGT_0588",
"HLGT_0751",
"HLGT_0005",
"HLGT_0178",
"HLGT_0198",
"HLGT_0500",
"HLGT_0192",
"HLGT_0695",
"HLGT_0188",
"HLGT_0695",
"HLGT_0198",
"HLGT_0192",
"HLGT_0081",
"HLGT_0036",
"HLGT_0695",
"HLGT_0198",
"HLGT_0709",
"HLGT_0695",
"HLGT_0695",
"HLGT_0198",
"HLGT_0198",
"HLGT_0198",
"HLGT_0198",
"HLGT_0081",
"HLGT_0137",
"HLGT_0188",
"HLGT_0255",
"HLGT_0198",
"HLGT_0012",
"HLGT_0627",
"HLGT_0267",
"HLGT_0192",
"HLGT_0192",
"HLGT_0192",
"HLGT_0005",
"HLGT_0695",
"HLGT_0782",
"HLGT_0036",
"HLGT_0695",
"HLGT_0198",
"HLGT_0408",
"HLGT_0695",
"HLGT_0198",
"HLGT_0456",
"HLGT_0695",
"HLGT_0198",
"HLGT_0198",
"HLGT_0504",
"HLGT_0560",
"HLGT_0344",
"HLGT_0313",
"HLGT_0013",
"HLGT_0198",
"HLGT_0192",
"HLGT_0087",
"HLGT_0716",
"HLGT_0695",
"HLGT_0511",
"HLGT_0695",
"HLGT_0695",
"HLGT_0192",
"HLGT_0695",
"HLGT_0695",
"HLGT_0198",
"HLGT_0198",
"HLGT_0753",
"HLGT_0162",
"HLGT_0220",
"HLGT_0326",
"HLGT_0259",
"HLGT_0350",
"HLGT_0419",
"HLGT_0339",
"HLGT_0695",
"HLGT_0570",
"HLGT_0701",
"HLGT_0570",
"HLGT_0570",
"HLGT_0588",
"HLGT_0511",
"HLGT_0461",
"HLGT_0695",
"HLGT_0310",
"HLGT_0310",
"HLGT_0192",
"HLGT_0192",
"HLGT_0511",
"HLGT_0695",
"HLGT_0695",
"HLGT_0008",
"HLGT_0335",
"HLGT_0032",
"HLGT_0630",
"HLGT_0751",
"HLGT_0344",
"HLGT_0513",
"HLGT_0433",
"HLGT_0598",
"HLGT_0576",
"HLGT_0751",
"HLGT_0688",
"HLGT_0500",
"HLGT_0751",
"HLGT_0344",
"HLGT_0140",
"HLGT_0140",
"HLGT_0170",
"HLGT_0192",
"HLGT_0182",
"HLGT_0338",
"HLGT_0012",
"HLGT_0129",
"HLGT_0751",
"HLGT_0543",
"HLGT_0709",
"HLGT_0747",
"HLGT_0012",
"HLGT_0152",
"HLGT_0338",
"HLGT_0236",
"HLGT_0335",
"HLGT_0280",
"HLGT_0751",
"HLGT_0673",
"HLGT_0241",
"HLGT_0280",
"HLGT_0588",
"HLGT_0344",
"HLGT_0773",
"HLGT_0750",
"HLGT_0709",
"HLGT_0594",
"HLGT_0419",
"HLGT_0338",
"HLGT_0635",
"HLGT_0688",
"HLGT_0338",
"HLGT_0576",
"HLGT_0067",
"HLGT_0764",
"HLGT_0338",
"HLGT_0236",
"HLGT_0500",
"HLGT_0152",
"HLGT_0344",
"HLGT_0152",
"HLGT_0338",
"HLGT_0338",
"HLGT_0751",
"HLGT_0751",
"HLGT_0152",
"HLGT_0236",
"HLGT_0192",
"HLGT_0695",
"HLGT_0338",
"HLGT_0688",
"HLGT_0751",
"HLGT_0412",
"HLGT_0086",
"HLGT_0137",
"HLGT_0152",
"HLGT_0152",
"HLGT_0338",
"HLGT_0338",
"HLGT_0301",
"HLGT_0301",
"HLGT_0577",
"HLGT_0241",
"HLGT_0241",
"HLGT_0588",
"HLGT_0419",
"HLGT_0241",
"HLGT_0338",
"HLGT_0588",
"HLGT_0152",
"HLGT_0280",
"HLGT_0750",
"HLGT_0688",
"HLGT_0688",
"HLGT_0688",
"HLGT_0398",
"HLGT_0695",
"HLGT_0500",
"HLGT_0500",
"HLGT_0137",
"HLGT_0198",
"HLGT_0241",
"HLGT_0198",
"HLGT_0103",
"HLGT_0241",
"HLGT_0241",
"HLGT_0338",
"HLGT_0338",
"HLGT_0576",
"HLGT_0709",
"HLGT_0241",
"HLGT_0241",
"HLGT_0338",
"HLGT_0338",
"HLGT_0576",
"HLGT_0751",
"HLGT_0695",
"HLGT_0198",
"HLGT_0384",
"HLGT_0241",
"HLGT_0241",
"HLGT_0280",
"HLGT_0751",
"HLGT_0751",
"HLGT_0751",
"HLGT_0130",
"HLGT_0344",
"HLGT_0695",
"HLGT_0241",
"HLGT_0457",
"HLGT_0338",
"HLGT_0280",
"HLGT_0588",
"HLGT_0131",
"HLGT_0450",
"HLGT_0489",
"HLGT_0568",
"HLGT_0568",
"HLGT_0289",
"HLGT_0041",
"HLGT_0011",
"HLGT_0412",
"HLGT_0557",
"HLGT_0111",
"HLGT_0652",
"HLGT_0241",
"HLGT_0338",
"HLGT_0547",
"HLGT_0500",
"HLGT_0572",
"HLGT_0346",
"HLGT_0338",
"HLGT_0338",
"HLGT_0253",
"HLGT_0198",
"HLGT_0198",
"HLGT_0157",
"HLGT_0338",
"HLGT_0076",
"HLGT_0751",
"HLGT_0717",
"HLGT_0549",
"HLGT_0049",
"HLGT_0097",
"HLGT_0097",
"HLGT_0007",
"HLGT_0350",
"HLGT_0241",
"HLGT_0220",
"HLGT_0324",
"HLGT_0241",
"HLGT_0338",
"HLGT_0280",
"HLGT_0310",
"HLGT_0350",
"HLGT_0751",
"HLGT_0652",
"HLGT_0298",
"HLGT_0344",
"HLGT_0310",
"HLGT_0433",
"HLGT_0381",
"HLGT_0751",
"HLGT_0751",
"HLGT_0585",
"HLGT_0446",
"HLGT_0546",
"HLGT_0695",
"HLGT_0488",
"HLGT_0500",
"HLGT_0384",
"HLGT_0093",
"HLGT_0195",
"HLGT_0695",
"HLGT_0680",
"HLGT_0410",
"HLGT_0192",
"HLGT_0709",
"HLGT_0695",
"HLGT_0198",
"HLGT_0726",
"HLGT_0384",
"HLGT_0350",
"HLGT_0695",
"HLGT_0198",
"HLGT_0715",
"HLGT_0338",
"HLGT_0338",
"HLGT_0446",
"HLGT_0446",
"HLGT_0469",
"HLGT_0549",
"HLGT_0192",
"HLGT_0020",
"HLGT_0131",
"HLGT_0695",
"HLGT_0198",
"HLGT_0279",
"HLGT_0170",
"HLGT_0241",
"HLGT_0587",
"HLGT_0587",
"HLGT_0384",
"HLGT_0688",
"HLGT_0192",
"HLGT_0344",
"HLGT_0695",
"HLGT_0147",
"HLGT_0751",
"HLGT_0344",
"HLGT_0688",
"HLGT_0326",
"HLGT_0687",
"HLGT_0384",
"HLGT_0384",
"HLGT_0656",
"HLGT_0446",
"HLGT_0118",
"HLGT_0310",
"HLGT_0310",
"HLGT_0464",
"HLGT_0500",
"HLGT_0346",
"HLGT_0338",
"HLGT_0280",
"HLGT_0288",
"HLGT_0192",
"HLGT_0695",
"HLGT_0695",
"HLGT_0695",
"HLGT_0161",
"HLGT_0161",
"HLGT_0161",
"HLGT_0208",
"HLGT_0208",
"HLGT_0208",
"HLGT_0588",
"HLGT_0695",
"HLGT_0198",
"HLGT_0192",
"HLGT_0695",
"HLGT_0012",
"HLGT_0413",
"HLGT_0255",
"HLGT_0102",
"HLGT_0688",
"HLGT_0152",
"HLGT_0456",
"HLGT_0198",
"HLGT_0254",
"HLGT_0350",
"HLGT_0346",
"HLGT_0267",
"HLGT_0192",
"HLGT_0695",
"HLGT_0709",
"HLGT_0192",
"HLGT_0344",
"HLGT_0695",
"HLGT_0198",
"HLGT_0192",
"HLGT_0695",
"HLGT_0193",
"HLGT_0695",
"HLGT_0198",
"HLGT_0565",
"HLGT_0131",
"HLGT_0277",
"HLGT_0012",
"HLGT_0464",
"HLGT_0267",
"HLGT_0030",
"HLGT_0695",
"HLGT_0198",
"HLGT_0619",
"HLGT_0192",
"HLGT_0709",
"HLGT_0241",
"HLGT_0241",
"HLGT_0338",
"HLGT_0338",
"HLGT_0233",
"HLGT_0709",
"HLGT_0760",
"HLGT_0427",
"HLGT_0344",
"HLGT_0241",
"HLGT_0158",
"HLGT_0720",
"HLGT_0709",
"HLGT_0709",
"HLGT_0035",
"HLGT_0753",
"HLGT_0279",
"HLGT_0180",
"HLGT_0594",
"HLGT_0614",
"HLGT_0476",
"HLGT_0476",
"HLGT_0152",
"HLGT_0152",
"HLGT_0058",
"HLGT_0326",
"HLGT_0350",
"HLGT_0338",
"HLGT_0508",
"HLGT_0176",
"HLGT_0753",
"HLGT_0614",
"HLGT_0614",
"HLGT_0282",
"HLGT_0716",
"HLGT_0716",
"HLGT_0210",
"HLGT_0385",
"HLGT_0304",
"HLGT_0691",
"HLGT_0093",
"HLGT_0643",
"HLGT_0419",
"HLGT_0419",
"HLGT_0338",
"HLGT_0751",
"HLGT_0241",
"HLGT_0152",
"HLGT_0280",
"HLGT_0198",
"HLGT_0198",
"HLGT_0288",
"HLGT_0288",
"HLGT_0346",
"HLGT_0326",
"HLGT_0523",
"HLGT_0597",
"HLGT_0220",
"HLGT_0130",
"HLGT_0279",
"HLGT_0152",
"HLGT_0152",
"HLGT_0338",
"HLGT_0338",
"HLGT_0384",
"HLGT_0152",
"HLGT_0338",
"HLGT_0588",
"HLGT_0210",
"HLGT_0005",
"HLGT_0254",
"HLGT_0610",
"HLGT_0508",
"HLGT_0280",
"HLGT_0588",
"HLGT_0751",
"HLGT_0192",
"HLGT_0709",
"HLGT_0500",
"HLGT_0432",
"HLGT_0192",
"HLGT_0192",
"HLGT_0695",
"HLGT_0695",
"HLGT_0384",
"HLGT_0086",
"HLGT_0331",
"HLGT_0500",
"HLGT_0546",
"HLGT_0500",
"HLGT_0668",
"HLGT_0326",
"HLGT_0500",
"HLGT_0329",
"HLGT_0751",
"HLGT_0005",
"HLGT_0593",
"HLGT_0500",
"HLGT_0221",
"HLGT_0709",
"HLGT_0760",
"HLGT_0760",
"HLGT_0030",
"HLGT_0130",
"HLGT_0005",
"HLGT_0695",
"HLGT_0329",
"HLGT_0588",
"HLGT_0181",
"HLGT_0005",
"HLGT_0448",
"HLGT_0695",
"HLGT_0510",
"HLGT_0181",
"HLGT_0628",
"HLGT_0310",
"HLGT_0627",
"HLGT_0597",
"HLGT_0747",
"HLGT_0267",
"HLGT_0267",
"HLGT_0192",
"HLGT_0695",
"HLGT_0220",
"HLGT_0695",
"HLGT_0192",
"HLGT_0507",
"HLGT_0695",
"HLGT_0192",
"HLGT_0695",
"HLGT_0489",
"HLGT_0192",
"HLGT_0695",
"HLGT_0267",
"HLGT_0765",
"HLGT_0695",
"HLGT_0484",
"HLGT_0192",
"HLGT_0565",
"HLGT_0649",
"HLGT_0190",
"HLGT_0695",
"HLGT_0430",
"HLGT_0695",
"HLGT_0267",
"HLGT_0192",
"HLGT_0695",
"HLGT_0192",
"HLGT_0419",
"HLGT_0192",
"HLGT_0245",
"HLGT_0192",
"HLGT_0695",
"HLGT_0506",
"HLGT_0695",
"HLGT_0192",
"HLGT_0344",
"HLGT_0344",
"HLGT_0695",
"HLGT_0705",
"HLGT_0598",
"HLGT_0192",
"HLGT_0195",
"HLGT_0130",
"HLGT_0192",
"HLGT_0005",
"HLGT_0695",
"HLGT_0570",
"HLGT_0508",
"HLGT_0280",
"HLGT_0588",
"HLGT_0623",
"HLGT_0181",
"HLGT_0461",
"HLGT_0460",
"HLGT_0500",
"HLGT_0384",
"HLGT_0384",
"HLGT_0384",
"HLGT_0540",
"HLGT_0329",
"HLGT_0005",
"HLGT_0769",
"HLGT_0469",
"HLGT_0689",
"HLGT_0384",
"HLGT_0594",
"HLGT_0469",
"HLGT_0695",
"HLGT_0695",
"HLGT_0198",
"HLGT_0384",
"HLGT_0384",
"HLGT_0234",
"HLGT_0384",
"HLGT_0181",
"HLGT_0549",
"HLGT_0326",
"HLGT_0350",
"HLGT_0403",
"HLGT_0751",
"HLGT_0751",
"HLGT_0326",
"HLGT_0137",
"HLGT_0384",
"HLGT_0384",
"HLGT_0350",
"HLGT_0570",
"HLGT_0478",
"HLGT_0478",
"HLGT_0198",
"HLGT_0500",
"HLGT_0384",
"HLGT_0170",
"HLGT_0004",
"HLGT_0310",
"HLGT_0310",
"HLGT_0346",
"HLGT_0346",
"HLGT_0329",
"HLGT_0005",
"HLGT_0688",
"HLGT_0500",
"HLGT_0350",
"HLGT_0588",
"HLGT_0254",
"HLGT_0346",
"HLGT_0346",
"HLGT_0294",
"HLGT_0294",
"HLGT_0376",
"HLGT_0500",
"HLGT_0489",
"HLGT_0170",
"HLGT_0351",
"HLGT_0751",
"HLGT_0005",
"HLGT_0476",
"HLGT_0310",
"HLGT_0338",
"HLGT_0338",
"HLGT_0101",
"HLGT_0101",
"HLGT_0381",
"HLGT_0381",
"HLGT_0015",
"HLGT_0446",
"HLGT_0273",
"HLGT_0338",
"HLGT_0610",
"HLGT_0610",
"HLGT_0405",
"HLGT_0376",
"HLGT_0254",
"HLGT_0241",
"HLGT_0346",
"HLGT_0346",
"HLGT_0346",
"HLGT_0241",
"HLGT_0241",
"HLGT_0241",
"HLGT_0241",
"HLGT_0668",
"HLGT_0668",
"HLGT_0329",
"HLGT_0257",
"HLGT_0476",
"HLGT_0017",
"HLGT_0254",
"HLGT_0346",
"HLGT_0346",
"HLGT_0181",
"HLT_0369",
"HLGT_0326",
"HLGT_0719",
"HLGT_0641",
"HLGT_0241",
"HLGT_0241",
"HLGT_0338",
"HLGT_0508",
"HLGT_0231",
"HLGT_0448",
"HLGT_0326",
"HLGT_0326",
"HLGT_0326",
"HLGT_0326",
"HLGT_0326"  ],
"AEHLGTCD": [
null,
null,
null,
null,
null,
null,
null,
null,
null,
null,
null,
null,
null,
null,
null,
null,
null,
null,
null,
null,
null,
null,
null,
null,
null,
null,
null,
null,
null,
null,
null,
null,
null,
null,
null,
null,
null,
null,
null,
null,
null,
null,
null,
null,
null,
null,
null,
null,
null,
null,
null,
null,
null,
null,
null,
null,
null,
null,
null,
null,
null,
null,
null,
null,
null,
null,
null,
null,
null,
null,
null,
null,
null,
null,
null,
null,
null,
null,
null,
null,
null,
null,
null,
null,
null,
null,
null,
null,
null,
null,
null,
null,
null,
null,
null,
null,
null,
null,
null,
null,
null,
null,
null,
null,
null,
null,
null,
null,
null,
null,
null,
null,
null,
null,
null,
null,
null,
null,
null,
null,
null,
null,
null,
null,
null,
null,
null,
null,
null,
null,
null,
null,
null,
null,
null,
null,
null,
null,
null,
null,
null,
null,
null,
null,
null,
null,
null,
null,
null,
null,
null,
null,
null,
null,
null,
null,
null,
null,
null,
null,
null,
null,
null,
null,
null,
null,
null,
null,
null,
null,
null,
null,
null,
null,
null,
null,
null,
null,
null,
null,
null,
null,
null,
null,
null,
null,
null,
null,
null,
null,
null,
null,
null,
null,
null,
null,
null,
null,
null,
null,
null,
null,
null,
null,
null,
null,
null,
null,
null,
null,
null,
null,
null,
null,
null,
null,
null,
null,
null,
null,
null,
null,
null,
null,
null,
null,
null,
null,
null,
null,
null,
null,
null,
null,
null,
null,
null,
null,
null,
null,
null,
null,
null,
null,
null,
null,
null,
null,
null,
null,
null,
null,
null,
null,
null,
null,
null,
null,
null,
null,
null,
null,
null,
null,
null,
null,
null,
null,
null,
null,
null,
null,
null,
null,
null,
null,
null,
null,
null,
null,
null,
null,
null,
null,
null,
null,
null,
null,
null,
null,
null,
null,
null,
null,
null,
null,
null,
null,
null,
null,
null,
null,
null,
null,
null,
null,
null,
null,
null,
null,
null,
null,
null,
null,
null,
null,
null,
null,
null,
null,
null,
null,
null,
null,
null,
null,
null,
null,
null,
null,
null,
null,
null,
null,
null,
null,
null,
null,
null,
null,
null,
null,
null,
null,
null,
null,
null,
null,
null,
null,
null,
null,
null,
null,
null,
null,
null,
null,
null,
null,
null,
null,
null,
null,
null,
null,
null,
null,
null,
null,
null,
null,
null,
null,
null,
null,
null,
null,
null,
null,
null,
null,
null,
null,
null,
null,
null,
null,
null,
null,
null,
null,
null,
null,
null,
null,
null,
null,
null,
null,
null,
null,
null,
null,
null,
null,
null,
null,
null,
null,
null,
null,
null,
null,
null,
null,
null,
null,
null,
null,
null,
null,
null,
null,
null,
null,
null,
null,
null,
null,
null,
null,
null,
null,
null,
null,
null,
null,
null,
null,
null,
null,
null,
null,
null,
null,
null,
null,
null,
null,
null,
null,
null,
null,
null,
null,
null,
null,
null,
null,
null,
null,
null,
null,
null,
null,
null,
null,
null,
null,
null,
null,
null,
null,
null,
null,
null,
null,
null,
null,
null,
null,
null,
null,
null,
null,
null,
null,
null,
null,
null,
null,
null,
null,
null,
null,
null,
null,
null,
null,
null,
null,
null,
null,
null,
null,
null,
null,
null,
null,
null,
null,
null,
null,
null,
null,
null,
null,
null,
null,
null,
null,
null,
null,
null,
null,
null,
null,
null,
null,
null,
null,
null,
null,
null,
null,
null,
null,
null,
null,
null,
null,
null,
null,
null,
null,
null,
null,
null,
null,
null,
null,
null,
null,
null,
null,
null,
null,
null,
null,
null,
null,
null,
null,
null,
null,
null,
null,
null,
null,
null,
null,
null,
null,
null,
null,
null,
null,
null,
null,
null,
null,
null,
null,
null,
null,
null,
null,
null,
null,
null,
null,
null,
null,
null,
null,
null,
null,
null,
null,
null,
null,
null,
null,
null,
null,
null,
null,
null,
null,
null,
null,
null,
null,
null,
null,
null,
null,
null,
null,
null,
null,
null,
null,
null,
null,
null,
null,
null,
null,
null,
null,
null,
null,
null,
null,
null,
null,
null,
null,
null,
null,
null,
null,
null,
null,
null,
null,
null,
null,
null,
null,
null,
null,
null,
null,
null,
null,
null,
null,
null,
null,
null,
null,
null,
null,
null,
null,
null,
null,
null,
null,
null,
null,
null,
null,
null,
null,
null,
null,
null,
null,
null,
null,
null,
null,
null,
null,
null,
null,
null,
null,
null,
null,
null,
null,
null,
null,
null,
null,
null,
null,
null,
null,
null,
null,
null,
null,
null,
null,
null,
null,
null,
null,
null,
null,
null,
null,
null,
null,
null,
null,
null,
null,
null,
null,
null,
null,
null,
null,
null,
null,
null,
null,
null,
null,
null,
null,
null,
null,
null,
null,
null,
null,
null,
null,
null,
null,
null,
null,
null,
null,
null,
null,
null,
null,
null,
null,
null,
null,
null,
null,
null,
null,
null,
null,
null,
null,
null,
null,
null,
null,
null,
null,
null,
null,
null,
null,
null,
null,
null,
null,
null,
null,
null,
null,
null,
null,
null,
null,
null,
null,
null,
null,
null,
null,
null,
null,
null,
null,
null,
null,
null,
null,
null,
null,
null,
null,
null,
null,
null,
null,
null,
null,
null,
null,
null,
null,
null,
null,
null,
null,
null,
null,
null,
null,
null,
null,
null,
null,
null,
null,
null,
null,
null,
null,
null,
null,
null,
null,
null,
null,
null,
null,
null,
null,
null,
null,
null,
null,
null,
null,
null,
null,
null,
null,
null,
null,
null,
null,
null,
null,
null,
null,
null,
null,
null,
null,
null,
null,
null,
null,
null,
null,
null,
null,
null,
null,
null,
null,
null,
null,
null,
null,
null,
null,
null,
null,
null,
null,
null,
null,
null,
null,
null,
null,
null,
null,
null,
null,
null,
null,
null,
null,
null,
null,
null,
null,
null,
null,
null,
null,
null,
null,
null,
null,
null,
null,
null,
null,
null,
null,
null,
null,
null,
null,
null,
null,
null,
null,
null,
null,
null,
null,
null,
null,
null,
null,
null,
null,
null,
null,
null,
null,
null,
null,
null,
null,
null,
null,
null,
null,
null,
null,
null,
null,
null,
null,
null,
null,
null  ],
"AEBODSYS": [
"GENERAL DISORDERS AND ADMINISTRATION SITE CONDITIONS",
"GENERAL DISORDERS AND ADMINISTRATION SITE CONDITIONS",
"GASTROINTESTINAL DISORDERS",
"CARDIAC DISORDERS",
"SKIN AND SUBCUTANEOUS TISSUE DISORDERS",
"SKIN AND SUBCUTANEOUS TISSUE DISORDERS",
"GENERAL DISORDERS AND ADMINISTRATION SITE CONDITIONS",
"GENERAL DISORDERS AND ADMINISTRATION SITE CONDITIONS",
"GENERAL DISORDERS AND ADMINISTRATION SITE CONDITIONS",
"GENERAL DISORDERS AND ADMINISTRATION SITE CONDITIONS",
"CARDIAC DISORDERS",
"GASTROINTESTINAL DISORDERS",
"INFECTIONS AND INFESTATIONS",
"GENERAL DISORDERS AND ADMINISTRATION SITE CONDITIONS",
"GENERAL DISORDERS AND ADMINISTRATION SITE CONDITIONS",
"GENERAL DISORDERS AND ADMINISTRATION SITE CONDITIONS",
"SKIN AND SUBCUTANEOUS TISSUE DISORDERS",
"RESPIRATORY",
"RESPIRATORY",
"SKIN AND SUBCUTANEOUS TISSUE DISORDERS",
"SKIN AND SUBCUTANEOUS TISSUE DISORDERS",
"SKIN AND SUBCUTANEOUS TISSUE DISORDERS",
"SKIN AND SUBCUTANEOUS TISSUE DISORDERS",
"MUSCULOSKELETAL AND CONNECTIVE TISSUE DISORDERS",
"INFECTIONS AND INFESTATIONS",
"SKIN AND SUBCUTANEOUS TISSUE DISORDERS",
"INFECTIONS AND INFESTATIONS",
"RENAL AND URINARY DISORDERS",
"SKIN AND SUBCUTANEOUS TISSUE DISORDERS",
"GENERAL DISORDERS AND ADMINISTRATION SITE CONDITIONS",
"GENERAL DISORDERS AND ADMINISTRATION SITE CONDITIONS",
"GENERAL DISORDERS AND ADMINISTRATION SITE CONDITIONS",
"GENERAL DISORDERS AND ADMINISTRATION SITE CONDITIONS",
"GENERAL DISORDERS AND ADMINISTRATION SITE CONDITIONS",
"GENERAL DISORDERS AND ADMINISTRATION SITE CONDITIONS",
"GENERAL DISORDERS AND ADMINISTRATION SITE CONDITIONS",
"GENERAL DISORDERS AND ADMINISTRATION SITE CONDITIONS",
"RESPIRATORY",
"EYE DISORDERS",
"EYE DISORDERS",
"EYE DISORDERS",
"RESPIRATORY",
"SKIN AND SUBCUTANEOUS TISSUE DISORDERS",
"GENERAL DISORDERS AND ADMINISTRATION SITE CONDITIONS",
"INFECTIONS AND INFESTATIONS",
"GENERAL DISORDERS AND ADMINISTRATION SITE CONDITIONS",
"GENERAL DISORDERS AND ADMINISTRATION SITE CONDITIONS",
"GENERAL DISORDERS AND ADMINISTRATION SITE CONDITIONS",
"GENERAL DISORDERS AND ADMINISTRATION SITE CONDITIONS",
"GENERAL DISORDERS AND ADMINISTRATION SITE CONDITIONS",
"GENERAL DISORDERS AND ADMINISTRATION SITE CONDITIONS",
"GENERAL DISORDERS AND ADMINISTRATION SITE CONDITIONS",
"GENERAL DISORDERS AND ADMINISTRATION SITE CONDITIONS",
"GENERAL DISORDERS AND ADMINISTRATION SITE CONDITIONS",
"GENERAL DISORDERS AND ADMINISTRATION SITE CONDITIONS",
"GENERAL DISORDERS AND ADMINISTRATION SITE CONDITIONS",
"GENERAL DISORDERS AND ADMINISTRATION SITE CONDITIONS",
"GENERAL DISORDERS AND ADMINISTRATION SITE CONDITIONS",
"SKIN AND SUBCUTANEOUS TISSUE DISORDERS",
"SKIN AND SUBCUTANEOUS TISSUE DISORDERS",
"GENERAL DISORDERS AND ADMINISTRATION SITE CONDITIONS",
"GENERAL DISORDERS AND ADMINISTRATION SITE CONDITIONS",
"RENAL AND URINARY DISORDERS",
"PSYCHIATRIC DISORDERS",
"GASTROINTESTINAL DISORDERS",
"RESPIRATORY",
"MUSCULOSKELETAL AND CONNECTIVE TISSUE DISORDERS",
"INFECTIONS AND INFESTATIONS",
"METABOLISM AND NUTRITION DISORDERS",
"GENERAL DISORDERS AND ADMINISTRATION SITE CONDITIONS",
"GENERAL DISORDERS AND ADMINISTRATION SITE CONDITIONS",
"GENERAL DISORDERS AND ADMINISTRATION SITE CONDITIONS",
"NERVOUS SYSTEM DISORDERS",
"RENAL AND URINARY DISORDERS",
"INFECTIONS AND INFESTATIONS",
"GASTROINTESTINAL DISORDERS",
"PSYCHIATRIC DISORDERS",
"GENERAL DISORDERS AND ADMINISTRATION SITE CONDITIONS",
"SKIN AND SUBCUTANEOUS TISSUE DISORDERS",
"SKIN AND SUBCUTANEOUS TISSUE DISORDERS",
"SKIN AND SUBCUTANEOUS TISSUE DISORDERS",
"SKIN AND SUBCUTANEOUS TISSUE DISORDERS",
"SKIN AND SUBCUTANEOUS TISSUE DISORDERS",
"SKIN AND SUBCUTANEOUS TISSUE DISORDERS",
"SKIN AND SUBCUTANEOUS TISSUE DISORDERS",
"GENERAL DISORDERS AND ADMINISTRATION SITE CONDITIONS",
"GENERAL DISORDERS AND ADMINISTRATION SITE CONDITIONS",
"GENERAL DISORDERS AND ADMINISTRATION SITE CONDITIONS",
"RESPIRATORY",
"RESPIRATORY",
"SKIN AND SUBCUTANEOUS TISSUE DISORDERS",
"MUSCULOSKELETAL AND CONNECTIVE TISSUE DISORDERS",
"INVESTIGATIONS",
"INFECTIONS AND INFESTATIONS",
"GENERAL DISORDERS AND ADMINISTRATION SITE CONDITIONS",
"SURGICAL AND MEDICAL PROCEDURES",
"GENERAL DISORDERS AND ADMINISTRATION SITE CONDITIONS",
"GENERAL DISORDERS AND ADMINISTRATION SITE CONDITIONS",
"PSYCHIATRIC DISORDERS",
"RESPIRATORY",
"RENAL AND URINARY DISORDERS",
"INJURY",
"MUSCULOSKELETAL AND CONNECTIVE TISSUE DISORDERS",
"INJURY",
"GENERAL DISORDERS AND ADMINISTRATION SITE CONDITIONS",
"GENERAL DISORDERS AND ADMINISTRATION SITE CONDITIONS",
"SKIN AND SUBCUTANEOUS TISSUE DISORDERS",
"SKIN AND SUBCUTANEOUS TISSUE DISORDERS",
"GENERAL DISORDERS AND ADMINISTRATION SITE CONDITIONS",
"INFECTIONS AND INFESTATIONS",
"SKIN AND SUBCUTANEOUS TISSUE DISORDERS",
"SKIN AND SUBCUTANEOUS TISSUE DISORDERS",
"INFECTIONS AND INFESTATIONS",
"RESPIRATORY",
"SKIN AND SUBCUTANEOUS TISSUE DISORDERS",
"RESPIRATORY",
"GASTROINTESTINAL DISORDERS",
"NERVOUS SYSTEM DISORDERS",
"SKIN AND SUBCUTANEOUS TISSUE DISORDERS",
"GASTROINTESTINAL DISORDERS",
"GASTROINTESTINAL DISORDERS",
"GENERAL DISORDERS AND ADMINISTRATION SITE CONDITIONS",
"GENERAL DISORDERS AND ADMINISTRATION SITE CONDITIONS",
"RESPIRATORY",
"GASTROINTESTINAL DISORDERS",
"GENERAL DISORDERS AND ADMINISTRATION SITE CONDITIONS",
"GENERAL DISORDERS AND ADMINISTRATION SITE CONDITIONS",
"GENERAL DISORDERS AND ADMINISTRATION SITE CONDITIONS",
"GENERAL DISORDERS AND ADMINISTRATION SITE CONDITIONS",
"GENERAL DISORDERS AND ADMINISTRATION SITE CONDITIONS",
"SKIN AND SUBCUTANEOUS TISSUE DISORDERS",
"GENERAL DISORDERS AND ADMINISTRATION SITE CONDITIONS",
"GENERAL DISORDERS AND ADMINISTRATION SITE CONDITIONS",
"GENERAL DISORDERS AND ADMINISTRATION SITE CONDITIONS",
"INJURY",
"NERVOUS SYSTEM DISORDERS",
"NERVOUS SYSTEM DISORDERS",
"RESPIRATORY",
"GENERAL DISORDERS AND ADMINISTRATION SITE CONDITIONS",
"NERVOUS SYSTEM DISORDERS",
"SKIN AND SUBCUTANEOUS TISSUE DISORDERS",
"PSYCHIATRIC DISORDERS",
"PSYCHIATRIC DISORDERS",
"GENERAL DISORDERS AND ADMINISTRATION SITE CONDITIONS",
"GENERAL DISORDERS AND ADMINISTRATION SITE CONDITIONS",
"MUSCULOSKELETAL AND CONNECTIVE TISSUE DISORDERS",
"RESPIRATORY",
"GENERAL DISORDERS AND ADMINISTRATION SITE CONDITIONS",
"RESPIRATORY",
"RESPIRATORY",
"RESPIRATORY",
"INFECTIONS AND INFESTATIONS",
"GASTROINTESTINAL DISORDERS",
"GENERAL DISORDERS AND ADMINISTRATION SITE CONDITIONS",
"GENERAL DISORDERS AND ADMINISTRATION SITE CONDITIONS",
"GENERAL DISORDERS AND ADMINISTRATION SITE CONDITIONS",
"GENERAL DISORDERS AND ADMINISTRATION SITE CONDITIONS",
"PSYCHIATRIC DISORDERS",
"PSYCHIATRIC DISORDERS",
"RESPIRATORY",
"GENERAL DISORDERS AND ADMINISTRATION SITE CONDITIONS",
"INFECTIONS AND INFESTATIONS",
"GENERAL DISORDERS AND ADMINISTRATION SITE CONDITIONS",
"GENERAL DISORDERS AND ADMINISTRATION SITE CONDITIONS",
"GENERAL DISORDERS AND ADMINISTRATION SITE CONDITIONS",
"GENERAL DISORDERS AND ADMINISTRATION SITE CONDITIONS",
"GENERAL DISORDERS AND ADMINISTRATION SITE CONDITIONS",
"GENERAL DISORDERS AND ADMINISTRATION SITE CONDITIONS",
"GENERAL DISORDERS AND ADMINISTRATION SITE CONDITIONS",
"GENERAL DISORDERS AND ADMINISTRATION SITE CONDITIONS",
"GENERAL DISORDERS AND ADMINISTRATION SITE CONDITIONS",
"GENERAL DISORDERS AND ADMINISTRATION SITE CONDITIONS",
"GENERAL DISORDERS AND ADMINISTRATION SITE CONDITIONS",
"GENERAL DISORDERS AND ADMINISTRATION SITE CONDITIONS",
"MUSCULOSKELETAL AND CONNECTIVE TISSUE DISORDERS",
"NERVOUS SYSTEM DISORDERS",
"NERVOUS SYSTEM DISORDERS",
"GASTROINTESTINAL DISORDERS",
"GENERAL DISORDERS AND ADMINISTRATION SITE CONDITIONS",
"GENERAL DISORDERS AND ADMINISTRATION SITE CONDITIONS",
"GENERAL DISORDERS AND ADMINISTRATION SITE CONDITIONS",
"GENERAL DISORDERS AND ADMINISTRATION SITE CONDITIONS",
"GENERAL DISORDERS AND ADMINISTRATION SITE CONDITIONS",
"GENERAL DISORDERS AND ADMINISTRATION SITE CONDITIONS",
"GENERAL DISORDERS AND ADMINISTRATION SITE CONDITIONS",
"GENERAL DISORDERS AND ADMINISTRATION SITE CONDITIONS",
"GENERAL DISORDERS AND ADMINISTRATION SITE CONDITIONS",
"GENERAL DISORDERS AND ADMINISTRATION SITE CONDITIONS",
"RESPIRATORY",
"NERVOUS SYSTEM DISORDERS",
"GASTROINTESTINAL DISORDERS",
"SKIN AND SUBCUTANEOUS TISSUE DISORDERS",
"INFECTIONS AND INFESTATIONS",
"GASTROINTESTINAL DISORDERS",
"RENAL AND URINARY DISORDERS",
"INFECTIONS AND INFESTATIONS",
"INFECTIONS AND INFESTATIONS",
"GENERAL DISORDERS AND ADMINISTRATION SITE CONDITIONS",
"GENERAL DISORDERS AND ADMINISTRATION SITE CONDITIONS",
"GENERAL DISORDERS AND ADMINISTRATION SITE CONDITIONS",
"GENERAL DISORDERS AND ADMINISTRATION SITE CONDITIONS",
"GENERAL DISORDERS AND ADMINISTRATION SITE CONDITIONS",
"GENERAL DISORDERS AND ADMINISTRATION SITE CONDITIONS",
"GENERAL DISORDERS AND ADMINISTRATION SITE CONDITIONS",
"NERVOUS SYSTEM DISORDERS",
"GASTROINTESTINAL DISORDERS",
"GENERAL DISORDERS AND ADMINISTRATION SITE CONDITIONS",
"INVESTIGATIONS",
"GASTROINTESTINAL DISORDERS",
"SKIN AND SUBCUTANEOUS TISSUE DISORDERS",
"INVESTIGATIONS",
"INVESTIGATIONS",
"GASTROINTESTINAL DISORDERS",
"PSYCHIATRIC DISORDERS",
"GENERAL DISORDERS AND ADMINISTRATION SITE CONDITIONS",
"GENERAL DISORDERS AND ADMINISTRATION SITE CONDITIONS",
"GENERAL DISORDERS AND ADMINISTRATION SITE CONDITIONS",
"REPRODUCTIVE SYSTEM AND BREAST DISORDERS",
"INVESTIGATIONS",
"METABOLISM AND NUTRITION DISORDERS",
"SKIN AND SUBCUTANEOUS TISSUE DISORDERS",
"GENERAL DISORDERS AND ADMINISTRATION SITE CONDITIONS",
"GENERAL DISORDERS AND ADMINISTRATION SITE CONDITIONS",
"GENERAL DISORDERS AND ADMINISTRATION SITE CONDITIONS",
"GENERAL DISORDERS AND ADMINISTRATION SITE CONDITIONS",
"GENERAL DISORDERS AND ADMINISTRATION SITE CONDITIONS",
"GENERAL DISORDERS AND ADMINISTRATION SITE CONDITIONS",
"SURGICAL AND MEDICAL PROCEDURES",
"GENERAL DISORDERS AND ADMINISTRATION SITE CONDITIONS",
"GENERAL DISORDERS AND ADMINISTRATION SITE CONDITIONS",
"INFECTIONS AND INFESTATIONS",
"GENERAL DISORDERS AND ADMINISTRATION SITE CONDITIONS",
"GENERAL DISORDERS AND ADMINISTRATION SITE CONDITIONS",
"SKIN AND SUBCUTANEOUS TISSUE DISORDERS",
"SKIN AND SUBCUTANEOUS TISSUE DISORDERS",
"CARDIAC DISORDERS",
"GENERAL DISORDERS AND ADMINISTRATION SITE CONDITIONS",
"GENERAL DISORDERS AND ADMINISTRATION SITE CONDITIONS",
"NERVOUS SYSTEM DISORDERS",
"NERVOUS SYSTEM DISORDERS",
"METABOLISM AND NUTRITION DISORDERS",
"METABOLISM AND NUTRITION DISORDERS",
"PSYCHIATRIC DISORDERS",
"GENERAL DISORDERS AND ADMINISTRATION SITE CONDITIONS",
"GENERAL DISORDERS AND ADMINISTRATION SITE CONDITIONS",
"NERVOUS SYSTEM DISORDERS",
"NERVOUS SYSTEM DISORDERS",
"INFECTIONS AND INFESTATIONS",
"MUSCULOSKELETAL AND CONNECTIVE TISSUE DISORDERS",
"EYE DISORDERS",
"VASCULAR DISORDERS",
"VASCULAR DISORDERS",
"CARDIAC DISORDERS",
"CARDIAC DISORDERS",
"CARDIAC DISORDERS",
"INFECTIONS AND INFESTATIONS",
"CARDIAC DISORDERS",
"GENERAL DISORDERS AND ADMINISTRATION SITE CONDITIONS",
"GASTROINTESTINAL DISORDERS",
"GASTROINTESTINAL DISORDERS",
"INVESTIGATIONS",
"GENERAL DISORDERS AND ADMINISTRATION SITE CONDITIONS",
"GENERAL DISORDERS AND ADMINISTRATION SITE CONDITIONS",
"SKIN AND SUBCUTANEOUS TISSUE DISORDERS",
"CARDIAC DISORDERS",
"NERVOUS SYSTEM DISORDERS",
"NERVOUS SYSTEM DISORDERS",
"GENERAL DISORDERS AND ADMINISTRATION SITE CONDITIONS",
"GENERAL DISORDERS AND ADMINISTRATION SITE CONDITIONS",
"GASTROINTESTINAL DISORDERS",
"SKIN AND SUBCUTANEOUS TISSUE DISORDERS",
"MUSCULOSKELETAL AND CONNECTIVE TISSUE DISORDERS",
"INJURY",
"INFECTIONS AND INFESTATIONS",
"GASTROINTESTINAL DISORDERS",
"INJURY",
"INJURY",
"GASTROINTESTINAL DISORDERS",
"CARDIAC DISORDERS",
"INFECTIONS AND INFESTATIONS",
"CARDIAC DISORDERS",
"SKIN AND SUBCUTANEOUS TISSUE DISORDERS",
"SKIN AND SUBCUTANEOUS TISSUE DISORDERS",
"CONGENITAL",
"INVESTIGATIONS",
"CARDIAC DISORDERS",
"EAR AND LABYRINTH DISORDERS",
"CARDIAC DISORDERS",
"GASTROINTESTINAL DISORDERS",
"GENERAL DISORDERS AND ADMINISTRATION SITE CONDITIONS",
"GENERAL DISORDERS AND ADMINISTRATION SITE CONDITIONS",
"GENERAL DISORDERS AND ADMINISTRATION SITE CONDITIONS",
"GASTROINTESTINAL DISORDERS",
"NERVOUS SYSTEM DISORDERS",
"SKIN AND SUBCUTANEOUS TISSUE DISORDERS",
"GENERAL DISORDERS AND ADMINISTRATION SITE CONDITIONS",
"SKIN AND SUBCUTANEOUS TISSUE DISORDERS",
"CARDIAC DISORDERS",
"SKIN AND SUBCUTANEOUS TISSUE DISORDERS",
"SKIN AND SUBCUTANEOUS TISSUE DISORDERS",
"INVESTIGATIONS",
"SKIN AND SUBCUTANEOUS TISSUE DISORDERS",
"SKIN AND SUBCUTANEOUS TISSUE DISORDERS",
"SKIN AND SUBCUTANEOUS TISSUE DISORDERS",
"INFECTIONS AND INFESTATIONS",
"GENERAL DISORDERS AND ADMINISTRATION SITE CONDITIONS",
"SKIN AND SUBCUTANEOUS TISSUE DISORDERS",
"SKIN AND SUBCUTANEOUS TISSUE DISORDERS",
"INFECTIONS AND INFESTATIONS",
"SKIN AND SUBCUTANEOUS TISSUE DISORDERS",
"SKIN AND SUBCUTANEOUS TISSUE DISORDERS",
"SKIN AND SUBCUTANEOUS TISSUE DISORDERS",
"SKIN AND SUBCUTANEOUS TISSUE DISORDERS",
"SKIN AND SUBCUTANEOUS TISSUE DISORDERS",
"SKIN AND SUBCUTANEOUS TISSUE DISORDERS",
"INFECTIONS AND INFESTATIONS",
"GENERAL DISORDERS AND ADMINISTRATION SITE CONDITIONS",
"INVESTIGATIONS",
"RESPIRATORY",
"SKIN AND SUBCUTANEOUS TISSUE DISORDERS",
"CARDIAC DISORDERS",
"CARDIAC DISORDERS",
"SKIN AND SUBCUTANEOUS TISSUE DISORDERS",
"SKIN AND SUBCUTANEOUS TISSUE DISORDERS",
"SKIN AND SUBCUTANEOUS TISSUE DISORDERS",
"SKIN AND SUBCUTANEOUS TISSUE DISORDERS",
"SKIN AND SUBCUTANEOUS TISSUE DISORDERS",
"SKIN AND SUBCUTANEOUS TISSUE DISORDERS",
"IMMUNE SYSTEM DISORDERS",
"GENERAL DISORDERS AND ADMINISTRATION SITE CONDITIONS",
"SKIN AND SUBCUTANEOUS TISSUE DISORDERS",
"SKIN AND SUBCUTANEOUS TISSUE DISORDERS",
"INFECTIONS AND INFESTATIONS",
"SKIN AND SUBCUTANEOUS TISSUE DISORDERS",
"SKIN AND SUBCUTANEOUS TISSUE DISORDERS",
"NERVOUS SYSTEM DISORDERS",
"SKIN AND SUBCUTANEOUS TISSUE DISORDERS",
"SKIN AND SUBCUTANEOUS TISSUE DISORDERS",
"SKIN AND SUBCUTANEOUS TISSUE DISORDERS",
"GASTROINTESTINAL DISORDERS",
"RENAL AND URINARY DISORDERS",
"NERVOUS SYSTEM DISORDERS",
"NERVOUS SYSTEM DISORDERS",
"PSYCHIATRIC DISORDERS",
"SKIN AND SUBCUTANEOUS TISSUE DISORDERS",
"SKIN AND SUBCUTANEOUS TISSUE DISORDERS",
"HEPATOBILIARY DISORDERS",
"GASTROINTESTINAL DISORDERS",
"SKIN AND SUBCUTANEOUS TISSUE DISORDERS",
"INJURY",
"SKIN AND SUBCUTANEOUS TISSUE DISORDERS",
"SKIN AND SUBCUTANEOUS TISSUE DISORDERS",
"SKIN AND SUBCUTANEOUS TISSUE DISORDERS",
"SKIN AND SUBCUTANEOUS TISSUE DISORDERS",
"SKIN AND SUBCUTANEOUS TISSUE DISORDERS",
"SKIN AND SUBCUTANEOUS TISSUE DISORDERS",
"SKIN AND SUBCUTANEOUS TISSUE DISORDERS",
"SKIN AND SUBCUTANEOUS TISSUE DISORDERS",
"VASCULAR DISORDERS",
"INVESTIGATIONS",
"GASTROINTESTINAL DISORDERS",
"CARDIAC DISORDERS",
"GASTROINTESTINAL DISORDERS",
"GASTROINTESTINAL DISORDERS",
"NEOPLASMS BENIGN",
"SKIN AND SUBCUTANEOUS TISSUE DISORDERS",
"PSYCHIATRIC DISORDERS",
"SKIN AND SUBCUTANEOUS TISSUE DISORDERS",
"PSYCHIATRIC DISORDERS",
"PSYCHIATRIC DISORDERS",
"GASTROINTESTINAL DISORDERS",
"INJURY",
"PSYCHIATRIC DISORDERS",
"SKIN AND SUBCUTANEOUS TISSUE DISORDERS",
"NERVOUS SYSTEM DISORDERS",
"NERVOUS SYSTEM DISORDERS",
"SKIN AND SUBCUTANEOUS TISSUE DISORDERS",
"SKIN AND SUBCUTANEOUS TISSUE DISORDERS",
"INJURY",
"SKIN AND SUBCUTANEOUS TISSUE DISORDERS",
"SKIN AND SUBCUTANEOUS TISSUE DISORDERS",
"INVESTIGATIONS",
"EYE DISORDERS",
"RESPIRATORY",
"CARDIAC DISORDERS",
"NERVOUS SYSTEM DISORDERS",
"NERVOUS SYSTEM DISORDERS",
"NERVOUS SYSTEM DISORDERS",
"NERVOUS SYSTEM DISORDERS",
"EYE DISORDERS",
"GENERAL DISORDERS AND ADMINISTRATION SITE CONDITIONS",
"NERVOUS SYSTEM DISORDERS",
"CARDIAC DISORDERS",
"CARDIAC DISORDERS",
"NERVOUS SYSTEM DISORDERS",
"NERVOUS SYSTEM DISORDERS",
"INVESTIGATIONS",
"INVESTIGATIONS",
"PSYCHIATRIC DISORDERS",
"SKIN AND SUBCUTANEOUS TISSUE DISORDERS",
"SOCIAL CIRCUMSTANCES",
"GENERAL DISORDERS AND ADMINISTRATION SITE CONDITIONS",
"CARDIAC DISORDERS",
"INFECTIONS AND INFESTATIONS",
"NERVOUS SYSTEM DISORDERS",
"MUSCULOSKELETAL AND CONNECTIVE TISSUE DISORDERS",
"INFECTIONS AND INFESTATIONS",
"CONGENITAL",
"CARDIAC DISORDERS",
"GENERAL DISORDERS AND ADMINISTRATION SITE CONDITIONS",
"GENERAL DISORDERS AND ADMINISTRATION SITE CONDITIONS",
"GENERAL DISORDERS AND ADMINISTRATION SITE CONDITIONS",
"EYE DISORDERS",
"RESPIRATORY",
"NERVOUS SYSTEM DISORDERS",
"INVESTIGATIONS",
"GENERAL DISORDERS AND ADMINISTRATION SITE CONDITIONS",
"RESPIRATORY",
"GASTROINTESTINAL DISORDERS",
"NERVOUS SYSTEM DISORDERS",
"VASCULAR DISORDERS",
"MUSCULOSKELETAL AND CONNECTIVE TISSUE DISORDERS",
"INFECTIONS AND INFESTATIONS",
"CARDIAC DISORDERS",
"GASTROINTESTINAL DISORDERS",
"GENERAL DISORDERS AND ADMINISTRATION SITE CONDITIONS",
"GASTROINTESTINAL DISORDERS",
"CARDIAC DISORDERS",
"GENERAL DISORDERS AND ADMINISTRATION SITE CONDITIONS",
"GENERAL DISORDERS AND ADMINISTRATION SITE CONDITIONS",
"CARDIAC DISORDERS",
"MUSCULOSKELETAL AND CONNECTIVE TISSUE DISORDERS",
"GENERAL DISORDERS AND ADMINISTRATION SITE CONDITIONS",
"GENERAL DISORDERS AND ADMINISTRATION SITE CONDITIONS",
"CARDIAC DISORDERS",
"GENERAL DISORDERS AND ADMINISTRATION SITE CONDITIONS",
"NERVOUS SYSTEM DISORDERS",
"GENERAL DISORDERS AND ADMINISTRATION SITE CONDITIONS",
"GENERAL DISORDERS AND ADMINISTRATION SITE CONDITIONS",
"GENERAL DISORDERS AND ADMINISTRATION SITE CONDITIONS",
"NERVOUS SYSTEM DISORDERS",
"NERVOUS SYSTEM DISORDERS",
"GENERAL DISORDERS AND ADMINISTRATION SITE CONDITIONS",
"GENERAL DISORDERS AND ADMINISTRATION SITE CONDITIONS",
"SKIN AND SUBCUTANEOUS TISSUE DISORDERS",
"SKIN AND SUBCUTANEOUS TISSUE DISORDERS",
"GENERAL DISORDERS AND ADMINISTRATION SITE CONDITIONS",
"CARDIAC DISORDERS",
"NERVOUS SYSTEM DISORDERS",
"VASCULAR DISORDERS",
"CARDIAC DISORDERS",
"GENERAL DISORDERS AND ADMINISTRATION SITE CONDITIONS",
"GENERAL DISORDERS AND ADMINISTRATION SITE CONDITIONS",
"GENERAL DISORDERS AND ADMINISTRATION SITE CONDITIONS",
"GENERAL DISORDERS AND ADMINISTRATION SITE CONDITIONS",
"GENERAL DISORDERS AND ADMINISTRATION SITE CONDITIONS",
"GENERAL DISORDERS AND ADMINISTRATION SITE CONDITIONS",
"GENERAL DISORDERS AND ADMINISTRATION SITE CONDITIONS",
"RESPIRATORY",
"GENERAL DISORDERS AND ADMINISTRATION SITE CONDITIONS",
"GENERAL DISORDERS AND ADMINISTRATION SITE CONDITIONS",
"GASTROINTESTINAL DISORDERS",
"GASTROINTESTINAL DISORDERS",
"GENERAL DISORDERS AND ADMINISTRATION SITE CONDITIONS",
"GENERAL DISORDERS AND ADMINISTRATION SITE CONDITIONS",
"GASTROINTESTINAL DISORDERS",
"GENERAL DISORDERS AND ADMINISTRATION SITE CONDITIONS",
"RESPIRATORY",
"MUSCULOSKELETAL AND CONNECTIVE TISSUE DISORDERS",
"CARDIAC DISORDERS",
"CARDIAC DISORDERS",
"CARDIAC DISORDERS",
"RESPIRATORY",
"SKIN AND SUBCUTANEOUS TISSUE DISORDERS",
"CARDIAC DISORDERS",
"CARDIAC DISORDERS",
"GENERAL DISORDERS AND ADMINISTRATION SITE CONDITIONS",
"SKIN AND SUBCUTANEOUS TISSUE DISORDERS",
"GENERAL DISORDERS AND ADMINISTRATION SITE CONDITIONS",
"SKIN AND SUBCUTANEOUS TISSUE DISORDERS",
"SURGICAL AND MEDICAL PROCEDURES",
"GENERAL DISORDERS AND ADMINISTRATION SITE CONDITIONS",
"GENERAL DISORDERS AND ADMINISTRATION SITE CONDITIONS",
"GENERAL DISORDERS AND ADMINISTRATION SITE CONDITIONS",
"GENERAL DISORDERS AND ADMINISTRATION SITE CONDITIONS",
"GENERAL DISORDERS AND ADMINISTRATION SITE CONDITIONS",
"INFECTIONS AND INFESTATIONS",
"GENERAL DISORDERS AND ADMINISTRATION SITE CONDITIONS",
"GENERAL DISORDERS AND ADMINISTRATION SITE CONDITIONS",
"GENERAL DISORDERS AND ADMINISTRATION SITE CONDITIONS",
"GENERAL DISORDERS AND ADMINISTRATION SITE CONDITIONS",
"GENERAL DISORDERS AND ADMINISTRATION SITE CONDITIONS",
"NERVOUS SYSTEM DISORDERS",
"SKIN AND SUBCUTANEOUS TISSUE DISORDERS",
"SKIN AND SUBCUTANEOUS TISSUE DISORDERS",
"SKIN AND SUBCUTANEOUS TISSUE DISORDERS",
"GENERAL DISORDERS AND ADMINISTRATION SITE CONDITIONS",
"GENERAL DISORDERS AND ADMINISTRATION SITE CONDITIONS",
"RESPIRATORY",
"NERVOUS SYSTEM DISORDERS",
"NERVOUS SYSTEM DISORDERS",
"NERVOUS SYSTEM DISORDERS",
"INVESTIGATIONS",
"NERVOUS SYSTEM DISORDERS",
"SKIN AND SUBCUTANEOUS TISSUE DISORDERS",
"GENERAL DISORDERS AND ADMINISTRATION SITE CONDITIONS",
"GENERAL DISORDERS AND ADMINISTRATION SITE CONDITIONS",
"GENERAL DISORDERS AND ADMINISTRATION SITE CONDITIONS",
"RESPIRATORY",
"GASTROINTESTINAL DISORDERS",
"INJURY",
"SURGICAL AND MEDICAL PROCEDURES",
"INFECTIONS AND INFESTATIONS",
"REPRODUCTIVE SYSTEM AND BREAST DISORDERS",
"REPRODUCTIVE SYSTEM AND BREAST DISORDERS",
"INVESTIGATIONS",
"INVESTIGATIONS",
"METABOLISM AND NUTRITION DISORDERS",
"VASCULAR DISORDERS",
"INFECTIONS AND INFESTATIONS",
"VASCULAR DISORDERS",
"GENERAL DISORDERS AND ADMINISTRATION SITE CONDITIONS",
"GENERAL DISORDERS AND ADMINISTRATION SITE CONDITIONS",
"GENERAL DISORDERS AND ADMINISTRATION SITE CONDITIONS",
"NERVOUS SYSTEM DISORDERS",
"CARDIAC DISORDERS",
"METABOLISM AND NUTRITION DISORDERS",
"GENERAL DISORDERS AND ADMINISTRATION SITE CONDITIONS",
"GENERAL DISORDERS AND ADMINISTRATION SITE CONDITIONS",
"GENERAL DISORDERS AND ADMINISTRATION SITE CONDITIONS",
"SKIN AND SUBCUTANEOUS TISSUE DISORDERS",
"SKIN AND SUBCUTANEOUS TISSUE DISORDERS",
"SKIN AND SUBCUTANEOUS TISSUE DISORDERS",
"RESPIRATORY",
"GENERAL DISORDERS AND ADMINISTRATION SITE CONDITIONS",
"INVESTIGATIONS",
"NERVOUS SYSTEM DISORDERS",
"GENERAL DISORDERS AND ADMINISTRATION SITE CONDITIONS",
"RESPIRATORY",
"PSYCHIATRIC DISORDERS",
"SKIN AND SUBCUTANEOUS TISSUE DISORDERS",
"SKIN AND SUBCUTANEOUS TISSUE DISORDERS",
"SKIN AND SUBCUTANEOUS TISSUE DISORDERS",
"GASTROINTESTINAL DISORDERS",
"GENERAL DISORDERS AND ADMINISTRATION SITE CONDITIONS",
"INVESTIGATIONS",
"GENERAL DISORDERS AND ADMINISTRATION SITE CONDITIONS",
"GENERAL DISORDERS AND ADMINISTRATION SITE CONDITIONS",
"GENERAL DISORDERS AND ADMINISTRATION SITE CONDITIONS",
"RESPIRATORY",
"NERVOUS SYSTEM DISORDERS",
"GASTROINTESTINAL DISORDERS",
"NERVOUS SYSTEM DISORDERS",
"GENERAL DISORDERS AND ADMINISTRATION SITE CONDITIONS",
"INVESTIGATIONS",
"NERVOUS SYSTEM DISORDERS",
"NERVOUS SYSTEM DISORDERS",
"NERVOUS SYSTEM DISORDERS",
"INJURY",
"NERVOUS SYSTEM DISORDERS",
"NERVOUS SYSTEM DISORDERS",
"INJURY",
"INJURY",
"RENAL AND URINARY DISORDERS",
"SKIN AND SUBCUTANEOUS TISSUE DISORDERS",
"GASTROINTESTINAL DISORDERS",
"CARDIAC DISORDERS",
"SKIN AND SUBCUTANEOUS TISSUE DISORDERS",
"INFECTIONS AND INFESTATIONS",
"GENERAL DISORDERS AND ADMINISTRATION SITE CONDITIONS",
"SKIN AND SUBCUTANEOUS TISSUE DISORDERS",
"RESPIRATORY",
"RESPIRATORY",
"SKIN AND SUBCUTANEOUS TISSUE DISORDERS",
"INFECTIONS AND INFESTATIONS",
"SKIN AND SUBCUTANEOUS TISSUE DISORDERS",
"SKIN AND SUBCUTANEOUS TISSUE DISORDERS",
"SKIN AND SUBCUTANEOUS TISSUE DISORDERS",
"SKIN AND SUBCUTANEOUS TISSUE DISORDERS",
"GASTROINTESTINAL DISORDERS",
"SKIN AND SUBCUTANEOUS TISSUE DISORDERS",
"SKIN AND SUBCUTANEOUS TISSUE DISORDERS",
"GENERAL DISORDERS AND ADMINISTRATION SITE CONDITIONS",
"GENERAL DISORDERS AND ADMINISTRATION SITE CONDITIONS",
"GENERAL DISORDERS AND ADMINISTRATION SITE CONDITIONS",
"INJURY",
"INJURY",
"PSYCHIATRIC DISORDERS",
"RESPIRATORY",
"SKIN AND SUBCUTANEOUS TISSUE DISORDERS",
"GASTROINTESTINAL DISORDERS",
"INJURY",
"SKIN AND SUBCUTANEOUS TISSUE DISORDERS",
"SKIN AND SUBCUTANEOUS TISSUE DISORDERS",
"CARDIAC DISORDERS",
"PSYCHIATRIC DISORDERS",
"GENERAL DISORDERS AND ADMINISTRATION SITE CONDITIONS",
"MUSCULOSKELETAL AND CONNECTIVE TISSUE DISORDERS",
"MUSCULOSKELETAL AND CONNECTIVE TISSUE DISORDERS",
"SKIN AND SUBCUTANEOUS TISSUE DISORDERS",
"CARDIAC DISORDERS",
"SKIN AND SUBCUTANEOUS TISSUE DISORDERS",
"NERVOUS SYSTEM DISORDERS",
"SKIN AND SUBCUTANEOUS TISSUE DISORDERS",
"EAR AND LABYRINTH DISORDERS",
"NERVOUS SYSTEM DISORDERS",
"NERVOUS SYSTEM DISORDERS",
"CARDIAC DISORDERS",
"GASTROINTESTINAL DISORDERS",
"NERVOUS SYSTEM DISORDERS",
"SKIN AND SUBCUTANEOUS TISSUE DISORDERS",
"SKIN AND SUBCUTANEOUS TISSUE DISORDERS",
"NERVOUS SYSTEM DISORDERS",
"INJURY",
"INJURY",
"NERVOUS SYSTEM DISORDERS",
"NERVOUS SYSTEM DISORDERS",
"CARDIAC DISORDERS",
"CARDIAC DISORDERS",
"GENERAL DISORDERS AND ADMINISTRATION SITE CONDITIONS",
"GENERAL DISORDERS AND ADMINISTRATION SITE CONDITIONS",
"RESPIRATORY",
"MUSCULOSKELETAL AND CONNECTIVE TISSUE DISORDERS",
"SKIN AND SUBCUTANEOUS TISSUE DISORDERS",
"SKIN AND SUBCUTANEOUS TISSUE DISORDERS",
"SKIN AND SUBCUTANEOUS TISSUE DISORDERS",
"SKIN AND SUBCUTANEOUS TISSUE DISORDERS",
"GENERAL DISORDERS AND ADMINISTRATION SITE CONDITIONS",
"GENERAL DISORDERS AND ADMINISTRATION SITE CONDITIONS",
"GENERAL DISORDERS AND ADMINISTRATION SITE CONDITIONS",
"SKIN AND SUBCUTANEOUS TISSUE DISORDERS",
"SKIN AND SUBCUTANEOUS TISSUE DISORDERS",
"SKIN AND SUBCUTANEOUS TISSUE DISORDERS",
"GASTROINTESTINAL DISORDERS",
"SKIN AND SUBCUTANEOUS TISSUE DISORDERS",
"SKIN AND SUBCUTANEOUS TISSUE DISORDERS",
"SKIN AND SUBCUTANEOUS TISSUE DISORDERS",
"SKIN AND SUBCUTANEOUS TISSUE DISORDERS",
"CARDIAC DISORDERS",
"CARDIAC DISORDERS",
"RESPIRATORY",
"METABOLISM AND NUTRITION DISORDERS",
"CARDIAC DISORDERS",
"GENERAL DISORDERS AND ADMINISTRATION SITE CONDITIONS",
"NERVOUS SYSTEM DISORDERS",
"SKIN AND SUBCUTANEOUS TISSUE DISORDERS",
"NERVOUS SYSTEM DISORDERS",
"GASTROINTESTINAL DISORDERS",
"GENERAL DISORDERS AND ADMINISTRATION SITE CONDITIONS",
"SKIN AND SUBCUTANEOUS TISSUE DISORDERS",
"SKIN AND SUBCUTANEOUS TISSUE DISORDERS",
"SKIN AND SUBCUTANEOUS TISSUE DISORDERS",
"INFECTIONS AND INFESTATIONS",
"SKIN AND SUBCUTANEOUS TISSUE DISORDERS",
"NERVOUS SYSTEM DISORDERS",
"SKIN AND SUBCUTANEOUS TISSUE DISORDERS",
"SKIN AND SUBCUTANEOUS TISSUE DISORDERS",
"SKIN AND SUBCUTANEOUS TISSUE DISORDERS",
"SKIN AND SUBCUTANEOUS TISSUE DISORDERS",
"GENERAL DISORDERS AND ADMINISTRATION SITE CONDITIONS",
"SKIN AND SUBCUTANEOUS TISSUE DISORDERS",
"SKIN AND SUBCUTANEOUS TISSUE DISORDERS",
"PSYCHIATRIC DISORDERS",
"INJURY",
"NERVOUS SYSTEM DISORDERS",
"CARDIAC DISORDERS",
"CARDIAC DISORDERS",
"SKIN AND SUBCUTANEOUS TISSUE DISORDERS",
"INVESTIGATIONS",
"SKIN AND SUBCUTANEOUS TISSUE DISORDERS",
"SKIN AND SUBCUTANEOUS TISSUE DISORDERS",
"CARDIAC DISORDERS",
"SKIN AND SUBCUTANEOUS TISSUE DISORDERS",
"INFECTIONS AND INFESTATIONS",
"GENERAL DISORDERS AND ADMINISTRATION SITE CONDITIONS",
"GENERAL DISORDERS AND ADMINISTRATION SITE CONDITIONS",
"GENERAL DISORDERS AND ADMINISTRATION SITE CONDITIONS",
"GENERAL DISORDERS AND ADMINISTRATION SITE CONDITIONS",
"GENERAL DISORDERS AND ADMINISTRATION SITE CONDITIONS",
"INFECTIONS AND INFESTATIONS",
"INFECTIONS AND INFESTATIONS",
"GASTROINTESTINAL DISORDERS",
"NERVOUS SYSTEM DISORDERS",
"GENERAL DISORDERS AND ADMINISTRATION SITE CONDITIONS",
"EAR AND LABYRINTH DISORDERS",
"EYE DISORDERS",
"INFECTIONS AND INFESTATIONS",
"INFECTIONS AND INFESTATIONS",
"NERVOUS SYSTEM DISORDERS",
"SKIN AND SUBCUTANEOUS TISSUE DISORDERS",
"CARDIAC DISORDERS",
"EAR AND LABYRINTH DISORDERS",
"CARDIAC DISORDERS",
"GENERAL DISORDERS AND ADMINISTRATION SITE CONDITIONS",
"VASCULAR DISORDERS",
"VASCULAR DISORDERS",
"GENERAL DISORDERS AND ADMINISTRATION SITE CONDITIONS",
"GENERAL DISORDERS AND ADMINISTRATION SITE CONDITIONS",
"SURGICAL AND MEDICAL PROCEDURES",
"GASTROINTESTINAL DISORDERS",
"GASTROINTESTINAL DISORDERS",
"GENERAL DISORDERS AND ADMINISTRATION SITE CONDITIONS",
"MUSCULOSKELETAL AND CONNECTIVE TISSUE DISORDERS",
"PSYCHIATRIC DISORDERS",
"SKIN AND SUBCUTANEOUS TISSUE DISORDERS",
"GENERAL DISORDERS AND ADMINISTRATION SITE CONDITIONS",
"GENERAL DISORDERS AND ADMINISTRATION SITE CONDITIONS",
"INFECTIONS AND INFESTATIONS",
"GASTROINTESTINAL DISORDERS",
"GASTROINTESTINAL DISORDERS",
"RENAL AND URINARY DISORDERS",
"INFECTIONS AND INFESTATIONS",
"GASTROINTESTINAL DISORDERS",
"REPRODUCTIVE SYSTEM AND BREAST DISORDERS",
"INFECTIONS AND INFESTATIONS",
"INFECTIONS AND INFESTATIONS",
"GASTROINTESTINAL DISORDERS",
"GASTROINTESTINAL DISORDERS",
"GENERAL DISORDERS AND ADMINISTRATION SITE CONDITIONS",
"NERVOUS SYSTEM DISORDERS",
"GENERAL DISORDERS AND ADMINISTRATION SITE CONDITIONS",
"GENERAL DISORDERS AND ADMINISTRATION SITE CONDITIONS",
"RESPIRATORY",
"SKIN AND SUBCUTANEOUS TISSUE DISORDERS",
"SKIN AND SUBCUTANEOUS TISSUE DISORDERS",
"MUSCULOSKELETAL AND CONNECTIVE TISSUE DISORDERS",
"MUSCULOSKELETAL AND CONNECTIVE TISSUE DISORDERS",
"GENERAL DISORDERS AND ADMINISTRATION SITE CONDITIONS",
"GASTROINTESTINAL DISORDERS",
"INFECTIONS AND INFESTATIONS",
"CARDIAC DISORDERS",
"INVESTIGATIONS",
"INVESTIGATIONS",
"CARDIAC DISORDERS",
"GENERAL DISORDERS AND ADMINISTRATION SITE CONDITIONS",
"GENERAL DISORDERS AND ADMINISTRATION SITE CONDITIONS",
"GENERAL DISORDERS AND ADMINISTRATION SITE CONDITIONS",
"GENERAL DISORDERS AND ADMINISTRATION SITE CONDITIONS",
"SKIN AND SUBCUTANEOUS TISSUE DISORDERS",
"GENERAL DISORDERS AND ADMINISTRATION SITE CONDITIONS",
"GENERAL DISORDERS AND ADMINISTRATION SITE CONDITIONS",
"GASTROINTESTINAL DISORDERS",
"RENAL AND URINARY DISORDERS",
"SKIN AND SUBCUTANEOUS TISSUE DISORDERS",
"NERVOUS SYSTEM DISORDERS",
"MUSCULOSKELETAL AND CONNECTIVE TISSUE DISORDERS",
"MUSCULOSKELETAL AND CONNECTIVE TISSUE DISORDERS",
"RESPIRATORY",
"GASTROINTESTINAL DISORDERS",
"NERVOUS SYSTEM DISORDERS",
"SKIN AND SUBCUTANEOUS TISSUE DISORDERS",
"INFECTIONS AND INFESTATIONS",
"CARDIAC DISORDERS",
"EAR AND LABYRINTH DISORDERS",
"SKIN AND SUBCUTANEOUS TISSUE DISORDERS",
"SKIN AND SUBCUTANEOUS TISSUE DISORDERS",
"SKIN AND SUBCUTANEOUS TISSUE DISORDERS",
"SKIN AND SUBCUTANEOUS TISSUE DISORDERS",
"SKIN AND SUBCUTANEOUS TISSUE DISORDERS",
"CARDIAC DISORDERS",
"SKIN AND SUBCUTANEOUS TISSUE DISORDERS",
"CARDIAC DISORDERS",
"RENAL AND URINARY DISORDERS",
"CARDIAC DISORDERS",
"GENERAL DISORDERS AND ADMINISTRATION SITE CONDITIONS",
"GASTROINTESTINAL DISORDERS",
"CARDIAC DISORDERS",
"PSYCHIATRIC DISORDERS",
"NERVOUS SYSTEM DISORDERS",
"SKIN AND SUBCUTANEOUS TISSUE DISORDERS",
"CARDIAC DISORDERS",
"CARDIAC DISORDERS",
"RESPIRATORY",
"INFECTIONS AND INFESTATIONS",
"INFECTIONS AND INFESTATIONS",
"INFECTIONS AND INFESTATIONS",
"INVESTIGATIONS",
"INVESTIGATIONS",
"SKIN AND SUBCUTANEOUS TISSUE DISORDERS",
"SKIN AND SUBCUTANEOUS TISSUE DISORDERS",
"PSYCHIATRIC DISORDERS",
"GASTROINTESTINAL DISORDERS",
"GENERAL DISORDERS AND ADMINISTRATION SITE CONDITIONS",
"SKIN AND SUBCUTANEOUS TISSUE DISORDERS",
"NERVOUS SYSTEM DISORDERS",
"SKIN AND SUBCUTANEOUS TISSUE DISORDERS",
"PSYCHIATRIC DISORDERS",
"GENERAL DISORDERS AND ADMINISTRATION SITE CONDITIONS",
"NERVOUS SYSTEM DISORDERS",
"NERVOUS SYSTEM DISORDERS",
"CARDIAC DISORDERS",
"CARDIAC DISORDERS",
"CONGENITAL",
"SKIN AND SUBCUTANEOUS TISSUE DISORDERS",
"SKIN AND SUBCUTANEOUS TISSUE DISORDERS",
"SKIN AND SUBCUTANEOUS TISSUE DISORDERS",
"SKIN AND SUBCUTANEOUS TISSUE DISORDERS",
"INVESTIGATIONS",
"SKIN AND SUBCUTANEOUS TISSUE DISORDERS",
"SKIN AND SUBCUTANEOUS TISSUE DISORDERS",
"NEOPLASMS BENIGN",
"SKIN AND SUBCUTANEOUS TISSUE DISORDERS",
"SKIN AND SUBCUTANEOUS TISSUE DISORDERS",
"SKIN AND SUBCUTANEOUS TISSUE DISORDERS",
"INFECTIONS AND INFESTATIONS",
"SKIN AND SUBCUTANEOUS TISSUE DISORDERS",
"SKIN AND SUBCUTANEOUS TISSUE DISORDERS",
"SKIN AND SUBCUTANEOUS TISSUE DISORDERS",
"IMMUNE SYSTEM DISORDERS",
"SKIN AND SUBCUTANEOUS TISSUE DISORDERS",
"GENERAL DISORDERS AND ADMINISTRATION SITE CONDITIONS",
"SKIN AND SUBCUTANEOUS TISSUE DISORDERS",
"PSYCHIATRIC DISORDERS",
"PSYCHIATRIC DISORDERS",
"NEOPLASMS BENIGN",
"SKIN AND SUBCUTANEOUS TISSUE DISORDERS",
"INVESTIGATIONS",
"SKIN AND SUBCUTANEOUS TISSUE DISORDERS",
"SKIN AND SUBCUTANEOUS TISSUE DISORDERS",
"SKIN AND SUBCUTANEOUS TISSUE DISORDERS",
"SKIN AND SUBCUTANEOUS TISSUE DISORDERS",
"SKIN AND SUBCUTANEOUS TISSUE DISORDERS",
"GASTROINTESTINAL DISORDERS",
"SKIN AND SUBCUTANEOUS TISSUE DISORDERS",
"GENERAL DISORDERS AND ADMINISTRATION SITE CONDITIONS",
"SKIN AND SUBCUTANEOUS TISSUE DISORDERS",
"SKIN AND SUBCUTANEOUS TISSUE DISORDERS",
"NERVOUS SYSTEM DISORDERS",
"SKIN AND SUBCUTANEOUS TISSUE DISORDERS",
"SKIN AND SUBCUTANEOUS TISSUE DISORDERS",
"NERVOUS SYSTEM DISORDERS",
"NERVOUS SYSTEM DISORDERS",
"SKIN AND SUBCUTANEOUS TISSUE DISORDERS",
"SKIN AND SUBCUTANEOUS TISSUE DISORDERS",
"EYE DISORDERS",
"SKIN AND SUBCUTANEOUS TISSUE DISORDERS",
"GENERAL DISORDERS AND ADMINISTRATION SITE CONDITIONS",
"INVESTIGATIONS",
"SKIN AND SUBCUTANEOUS TISSUE DISORDERS",
"SKIN AND SUBCUTANEOUS TISSUE DISORDERS",
"SKIN AND SUBCUTANEOUS TISSUE DISORDERS",
"PSYCHIATRIC DISORDERS",
"MUSCULOSKELETAL AND CONNECTIVE TISSUE DISORDERS",
"RESPIRATORY",
"GASTROINTESTINAL DISORDERS",
"RENAL AND URINARY DISORDERS",
"GENERAL DISORDERS AND ADMINISTRATION SITE CONDITIONS",
"PSYCHIATRIC DISORDERS",
"RESPIRATORY",
"CARDIAC DISORDERS",
"SKIN AND SUBCUTANEOUS TISSUE DISORDERS",
"SKIN AND SUBCUTANEOUS TISSUE DISORDERS",
"SKIN AND SUBCUTANEOUS TISSUE DISORDERS",
"INJURY",
"PSYCHIATRIC DISORDERS",
"SKIN AND SUBCUTANEOUS TISSUE DISORDERS",
"METABOLISM AND NUTRITION DISORDERS",
"PSYCHIATRIC DISORDERS",
"SKIN AND SUBCUTANEOUS TISSUE DISORDERS",
"SKIN AND SUBCUTANEOUS TISSUE DISORDERS",
"CARDIAC DISORDERS",
"PSYCHIATRIC DISORDERS",
"SKIN AND SUBCUTANEOUS TISSUE DISORDERS",
"SKIN AND SUBCUTANEOUS TISSUE DISORDERS",
"SKIN AND SUBCUTANEOUS TISSUE DISORDERS",
"SKIN AND SUBCUTANEOUS TISSUE DISORDERS",
"SKIN AND SUBCUTANEOUS TISSUE DISORDERS",
"SKIN AND SUBCUTANEOUS TISSUE DISORDERS",
"SKIN AND SUBCUTANEOUS TISSUE DISORDERS",
"GENERAL DISORDERS AND ADMINISTRATION SITE CONDITIONS",
"RESPIRATORY",
"GASTROINTESTINAL DISORDERS",
"GASTROINTESTINAL DISORDERS",
"GENERAL DISORDERS AND ADMINISTRATION SITE CONDITIONS",
"NERVOUS SYSTEM DISORDERS",
"NERVOUS SYSTEM DISORDERS",
"GASTROINTESTINAL DISORDERS",
"GENERAL DISORDERS AND ADMINISTRATION SITE CONDITIONS",
"SKIN AND SUBCUTANEOUS TISSUE DISORDERS",
"SKIN AND SUBCUTANEOUS TISSUE DISORDERS",
"GASTROINTESTINAL DISORDERS",
"PSYCHIATRIC DISORDERS",
"GENERAL DISORDERS AND ADMINISTRATION SITE CONDITIONS",
"GENERAL DISORDERS AND ADMINISTRATION SITE CONDITIONS",
"SKIN AND SUBCUTANEOUS TISSUE DISORDERS",
"CARDIAC DISORDERS",
"SKIN AND SUBCUTANEOUS TISSUE DISORDERS",
"PSYCHIATRIC DISORDERS",
"GENERAL DISORDERS AND ADMINISTRATION SITE CONDITIONS",
"NERVOUS SYSTEM DISORDERS",
"NERVOUS SYSTEM DISORDERS",
"GENERAL DISORDERS AND ADMINISTRATION SITE CONDITIONS",
"GENERAL DISORDERS AND ADMINISTRATION SITE CONDITIONS",
"PSYCHIATRIC DISORDERS",
"SKIN AND SUBCUTANEOUS TISSUE DISORDERS",
"CARDIAC DISORDERS",
"CARDIAC DISORDERS",
"GASTROINTESTINAL DISORDERS",
"GASTROINTESTINAL DISORDERS",
"NERVOUS SYSTEM DISORDERS",
"GENERAL DISORDERS AND ADMINISTRATION SITE CONDITIONS",
"GENERAL DISORDERS AND ADMINISTRATION SITE CONDITIONS",
"CARDIAC DISORDERS",
"CARDIAC DISORDERS",
"METABOLISM AND NUTRITION DISORDERS",
"CARDIAC DISORDERS",
"INFECTIONS AND INFESTATIONS",
"PSYCHIATRIC DISORDERS",
"INVESTIGATIONS",
"NERVOUS SYSTEM DISORDERS",
"SKIN AND SUBCUTANEOUS TISSUE DISORDERS",
"VASCULAR DISORDERS",
"NERVOUS SYSTEM DISORDERS",
"GENERAL DISORDERS AND ADMINISTRATION SITE CONDITIONS",
"GENERAL DISORDERS AND ADMINISTRATION SITE CONDITIONS",
"NERVOUS SYSTEM DISORDERS",
"NERVOUS SYSTEM DISORDERS",
"INJURY",
"INJURY",
"NERVOUS SYSTEM DISORDERS",
"INJURY",
"GENERAL DISORDERS AND ADMINISTRATION SITE CONDITIONS",
"GENERAL DISORDERS AND ADMINISTRATION SITE CONDITIONS",
"MUSCULOSKELETAL AND CONNECTIVE TISSUE DISORDERS",
"MUSCULOSKELETAL AND CONNECTIVE TISSUE DISORDERS",
"GASTROINTESTINAL DISORDERS",
"METABOLISM AND NUTRITION DISORDERS",
"NERVOUS SYSTEM DISORDERS",
"GENERAL DISORDERS AND ADMINISTRATION SITE CONDITIONS",
"GENERAL DISORDERS AND ADMINISTRATION SITE CONDITIONS",
"GENERAL DISORDERS AND ADMINISTRATION SITE CONDITIONS",
"GENERAL DISORDERS AND ADMINISTRATION SITE CONDITIONS",
"GENERAL DISORDERS AND ADMINISTRATION SITE CONDITIONS",
"GENERAL DISORDERS AND ADMINISTRATION SITE CONDITIONS",
"GENERAL DISORDERS AND ADMINISTRATION SITE CONDITIONS",
"GENERAL DISORDERS AND ADMINISTRATION SITE CONDITIONS",
"GENERAL DISORDERS AND ADMINISTRATION SITE CONDITIONS",
"GENERAL DISORDERS AND ADMINISTRATION SITE CONDITIONS",
"PSYCHIATRIC DISORDERS",
"SKIN AND SUBCUTANEOUS TISSUE DISORDERS",
"VASCULAR DISORDERS",
"SKIN AND SUBCUTANEOUS TISSUE DISORDERS",
"NERVOUS SYSTEM DISORDERS",
"GENERAL DISORDERS AND ADMINISTRATION SITE CONDITIONS",
"GENERAL DISORDERS AND ADMINISTRATION SITE CONDITIONS",
"GENERAL DISORDERS AND ADMINISTRATION SITE CONDITIONS",
"HLGT_0663",
"GASTROINTESTINAL DISORDERS",
"NERVOUS SYSTEM DISORDERS",
"NERVOUS SYSTEM DISORDERS",
"GENERAL DISORDERS AND ADMINISTRATION SITE CONDITIONS",
"GENERAL DISORDERS AND ADMINISTRATION SITE CONDITIONS",
"GENERAL DISORDERS AND ADMINISTRATION SITE CONDITIONS",
"MUSCULOSKELETAL AND CONNECTIVE TISSUE DISORDERS",
"METABOLISM AND NUTRITION DISORDERS",
"NERVOUS SYSTEM DISORDERS",
"GASTROINTESTINAL DISORDERS",
"GASTROINTESTINAL DISORDERS",
"GASTROINTESTINAL DISORDERS",
"GASTROINTESTINAL DISORDERS",
"GASTROINTESTINAL DISORDERS"  ],
"AEBDSYCD": [
null,
null,
null,
null,
null,
null,
null,
null,
null,
null,
null,
null,
null,
null,
null,
null,
null,
"THORACIC AND MEDIASTINAL DISORDERS",
"THORACIC AND MEDIASTINAL DISORDERS",
null,
null,
null,
null,
null,
null,
null,
null,
null,
null,
null,
null,
null,
null,
null,
null,
null,
null,
"THORACIC AND MEDIASTINAL DISORDERS",
null,
null,
null,
"THORACIC AND MEDIASTINAL DISORDERS",
null,
null,
null,
null,
null,
null,
null,
null,
null,
null,
null,
null,
null,
null,
null,
null,
null,
null,
null,
null,
null,
null,
null,
"THORACIC AND MEDIASTINAL DISORDERS",
null,
null,
null,
null,
null,
null,
null,
null,
null,
null,
null,
null,
null,
null,
null,
null,
null,
null,
null,
null,
null,
null,
"THORACIC AND MEDIASTINAL DISORDERS",
"THORACIC AND MEDIASTINAL DISORDERS",
null,
null,
null,
null,
null,
null,
null,
null,
null,
"THORACIC AND MEDIASTINAL DISORDERS",
null,
"POISONING AND PROCEDURAL COMPLICATIONS",
null,
"POISONING AND PROCEDURAL COMPLICATIONS",
null,
null,
null,
null,
null,
null,
null,
null,
null,
"THORACIC AND MEDIASTINAL DISORDERS",
null,
"THORACIC AND MEDIASTINAL DISORDERS",
null,
null,
null,
null,
null,
null,
null,
"THORACIC AND MEDIASTINAL DISORDERS",
null,
null,
null,
null,
null,
null,
null,
null,
null,
null,
"POISONING AND PROCEDURAL COMPLICATIONS",
null,
null,
"THORACIC AND MEDIASTINAL DISORDERS",
null,
null,
null,
null,
null,
null,
null,
null,
"THORACIC AND MEDIASTINAL DISORDERS",
null,
"THORACIC AND MEDIASTINAL DISORDERS",
"THORACIC AND MEDIASTINAL DISORDERS",
"THORACIC AND MEDIASTINAL DISORDERS",
null,
null,
null,
null,
null,
null,
null,
null,
"THORACIC AND MEDIASTINAL DISORDERS",
null,
null,
null,
null,
null,
null,
null,
null,
null,
null,
null,
null,
null,
null,
null,
null,
null,
null,
null,
null,
null,
null,
null,
null,
null,
null,
null,
null,
"THORACIC AND MEDIASTINAL DISORDERS",
null,
null,
null,
null,
null,
null,
null,
null,
null,
null,
null,
null,
null,
null,
null,
null,
null,
null,
null,
null,
null,
null,
null,
null,
null,
null,
null,
null,
null,
null,
null,
null,
null,
null,
null,
null,
null,
null,
null,
null,
null,
null,
null,
null,
null,
null,
null,
null,
null,
null,
null,
null,
null,
null,
null,
null,
null,
null,
null,
null,
null,
null,
null,
null,
null,
null,
null,
null,
null,
null,
null,
null,
null,
null,
null,
null,
null,
null,
null,
null,
null,
null,
null,
"POISONING AND PROCEDURAL COMPLICATIONS",
null,
null,
"POISONING AND PROCEDURAL COMPLICATIONS",
"POISONING AND PROCEDURAL COMPLICATIONS",
null,
null,
null,
null,
null,
null,
"FAMILIAL AND GENETIC DISORDERS",
null,
null,
null,
null,
null,
null,
null,
null,
null,
null,
null,
null,
null,
null,
null,
null,
null,
null,
null,
null,
null,
null,
null,
null,
null,
null,
null,
null,
null,
null,
null,
null,
null,
null,
"THORACIC AND MEDIASTINAL DISORDERS",
null,
null,
null,
null,
null,
null,
null,
null,
null,
null,
null,
null,
null,
null,
null,
null,
null,
null,
null,
null,
null,
null,
null,
null,
null,
null,
null,
null,
null,
null,
"POISONING AND PROCEDURAL COMPLICATIONS",
null,
null,
null,
null,
null,
null,
null,
null,
null,
null,
null,
null,
null,
null,
"MALIGNANT AND UNSPECIFIED (INCL CYSTS AND POLYPS)",
null,
null,
null,
null,
null,
null,
"POISONING AND PROCEDURAL COMPLICATIONS",
null,
null,
null,
null,
null,
null,
"POISONING AND PROCEDURAL COMPLICATIONS",
null,
null,
null,
null,
"THORACIC AND MEDIASTINAL DISORDERS",
null,
null,
null,
null,
null,
null,
null,
null,
null,
null,
null,
null,
null,
null,
null,
null,
null,
null,
null,
null,
null,
null,
null,
"FAMILIAL AND GENETIC DISORDERS",
null,
null,
null,
null,
null,
"THORACIC AND MEDIASTINAL DISORDERS",
null,
null,
null,
"THORACIC AND MEDIASTINAL DISORDERS",
null,
null,
null,
null,
null,
null,
null,
null,
null,
null,
null,
null,
null,
null,
null,
null,
null,
null,
null,
null,
null,
null,
null,
null,
null,
null,
null,
null,
null,
null,
null,
null,
null,
null,
null,
null,
null,
null,
null,
null,
"THORACIC AND MEDIASTINAL DISORDERS",
null,
null,
null,
null,
null,
null,
null,
null,
"THORACIC AND MEDIASTINAL DISORDERS",
null,
null,
null,
null,
"THORACIC AND MEDIASTINAL DISORDERS",
null,
null,
null,
null,
null,
null,
null,
null,
null,
null,
null,
null,
null,
null,
null,
null,
null,
null,
null,
null,
null,
null,
null,
null,
null,
"THORACIC AND MEDIASTINAL DISORDERS",
null,
null,
null,
null,
null,
null,
null,
null,
null,
"THORACIC AND MEDIASTINAL DISORDERS",
null,
"POISONING AND PROCEDURAL COMPLICATIONS",
null,
null,
null,
null,
null,
null,
null,
null,
null,
null,
null,
null,
null,
null,
null,
null,
null,
null,
null,
null,
null,
null,
"THORACIC AND MEDIASTINAL DISORDERS",
null,
null,
null,
null,
"THORACIC AND MEDIASTINAL DISORDERS",
null,
null,
null,
null,
null,
null,
null,
null,
null,
null,
"THORACIC AND MEDIASTINAL DISORDERS",
null,
null,
null,
null,
null,
null,
null,
null,
"POISONING AND PROCEDURAL COMPLICATIONS",
null,
null,
"POISONING AND PROCEDURAL COMPLICATIONS",
"POISONING AND PROCEDURAL COMPLICATIONS",
null,
null,
null,
null,
null,
null,
null,
null,
"THORACIC AND MEDIASTINAL DISORDERS",
"THORACIC AND MEDIASTINAL DISORDERS",
null,
null,
null,
null,
null,
null,
null,
null,
null,
null,
null,
null,
"POISONING AND PROCEDURAL COMPLICATIONS",
"POISONING AND PROCEDURAL COMPLICATIONS",
null,
"THORACIC AND MEDIASTINAL DISORDERS",
null,
null,
"POISONING AND PROCEDURAL COMPLICATIONS",
null,
null,
null,
null,
null,
null,
null,
null,
null,
null,
null,
null,
null,
null,
null,
null,
null,
null,
null,
null,
null,
"POISONING AND PROCEDURAL COMPLICATIONS",
"POISONING AND PROCEDURAL COMPLICATIONS",
null,
null,
null,
null,
null,
null,
"THORACIC AND MEDIASTINAL DISORDERS",
null,
null,
null,
null,
null,
null,
null,
null,
null,
null,
null,
null,
null,
null,
null,
null,
null,
null,
"THORACIC AND MEDIASTINAL DISORDERS",
null,
null,
null,
null,
null,
null,
null,
null,
null,
null,
null,
null,
null,
null,
null,
null,
null,
null,
null,
null,
null,
null,
"POISONING AND PROCEDURAL COMPLICATIONS",
null,
null,
null,
null,
null,
null,
null,
null,
null,
null,
null,
null,
null,
null,
null,
null,
null,
null,
null,
null,
null,
null,
null,
null,
null,
null,
null,
null,
null,
null,
null,
null,
null,
null,
null,
null,
null,
null,
null,
null,
null,
null,
null,
null,
null,
null,
null,
null,
null,
null,
null,
null,
null,
null,
null,
null,
null,
null,
"THORACIC AND MEDIASTINAL DISORDERS",
null,
null,
null,
null,
null,
null,
null,
null,
null,
null,
null,
null,
null,
null,
null,
null,
null,
null,
null,
null,
null,
null,
null,
null,
"THORACIC AND MEDIASTINAL DISORDERS",
null,
null,
null,
null,
null,
null,
null,
null,
null,
null,
null,
null,
null,
null,
null,
null,
null,
null,
null,
null,
null,
null,
null,
null,
"THORACIC AND MEDIASTINAL DISORDERS",
null,
null,
null,
null,
null,
null,
null,
null,
null,
null,
null,
null,
null,
null,
null,
null,
null,
null,
null,
"FAMILIAL AND GENETIC DISORDERS",
null,
null,
null,
null,
null,
null,
null,
"MALIGNANT AND UNSPECIFIED (INCL CYSTS AND POLYPS)",
null,
null,
null,
null,
null,
null,
null,
null,
null,
null,
null,
null,
null,
"MALIGNANT AND UNSPECIFIED (INCL CYSTS AND POLYPS)",
null,
null,
null,
null,
null,
null,
null,
null,
null,
null,
null,
null,
null,
null,
null,
null,
null,
null,
null,
null,
null,
null,
null,
null,
null,
null,
null,
null,
"THORACIC AND MEDIASTINAL DISORDERS",
null,
null,
null,
null,
"THORACIC AND MEDIASTINAL DISORDERS",
null,
null,
null,
null,
"POISONING AND PROCEDURAL COMPLICATIONS",
null,
null,
null,
null,
null,
null,
null,
null,
null,
null,
null,
null,
null,
null,
null,
null,
"THORACIC AND MEDIASTINAL DISORDERS",
null,
null,
null,
null,
null,
null,
null,
null,
null,
null,
null,
null,
null,
null,
null,
null,
null,
null,
null,
null,
null,
null,
null,
null,
null,
null,
null,
null,
null,
null,
null,
null,
null,
null,
null,
null,
null,
null,
null,
null,
null,
null,
null,
null,
null,
null,
"POISONING AND PROCEDURAL COMPLICATIONS",
"POISONING AND PROCEDURAL COMPLICATIONS",
null,
"POISONING AND PROCEDURAL COMPLICATIONS",
null,
null,
null,
null,
null,
null,
null,
null,
null,
null,
null,
null,
null,
null,
null,
null,
null,
null,
null,
null,
null,
null,
null,
null,
null,
null,
null,
null,
null,
null,
null,
null,
null,
null,
null,
null,
null,
null,
null,
null  ],
"AESOC": [
"GENERAL DISORDERS AND ADMINISTRATION SITE CONDITIONS",
"GENERAL DISORDERS AND ADMINISTRATION SITE CONDITIONS",
"GASTROINTESTINAL DISORDERS",
"CARDIAC DISORDERS",
"SKIN AND SUBCUTANEOUS TISSUE DISORDERS",
"SKIN AND SUBCUTANEOUS TISSUE DISORDERS",
"GENERAL DISORDERS AND ADMINISTRATION SITE CONDITIONS",
"GENERAL DISORDERS AND ADMINISTRATION SITE CONDITIONS",
"GENERAL DISORDERS AND ADMINISTRATION SITE CONDITIONS",
"GENERAL DISORDERS AND ADMINISTRATION SITE CONDITIONS",
"CARDIAC DISORDERS",
"GASTROINTESTINAL DISORDERS",
"INFECTIONS AND INFESTATIONS",
"GENERAL DISORDERS AND ADMINISTRATION SITE CONDITIONS",
"GENERAL DISORDERS AND ADMINISTRATION SITE CONDITIONS",
"GENERAL DISORDERS AND ADMINISTRATION SITE CONDITIONS",
"SKIN AND SUBCUTANEOUS TISSUE DISORDERS",
null,
null,
"SKIN AND SUBCUTANEOUS TISSUE DISORDERS",
"SKIN AND SUBCUTANEOUS TISSUE DISORDERS",
"SKIN AND SUBCUTANEOUS TISSUE DISORDERS",
"SKIN AND SUBCUTANEOUS TISSUE DISORDERS",
"MUSCULOSKELETAL AND CONNECTIVE TISSUE DISORDERS",
"INFECTIONS AND INFESTATIONS",
"SKIN AND SUBCUTANEOUS TISSUE DISORDERS",
"INFECTIONS AND INFESTATIONS",
"RENAL AND URINARY DISORDERS",
"SKIN AND SUBCUTANEOUS TISSUE DISORDERS",
"GENERAL DISORDERS AND ADMINISTRATION SITE CONDITIONS",
"GENERAL DISORDERS AND ADMINISTRATION SITE CONDITIONS",
"GENERAL DISORDERS AND ADMINISTRATION SITE CONDITIONS",
"GENERAL DISORDERS AND ADMINISTRATION SITE CONDITIONS",
"GENERAL DISORDERS AND ADMINISTRATION SITE CONDITIONS",
"GENERAL DISORDERS AND ADMINISTRATION SITE CONDITIONS",
"GENERAL DISORDERS AND ADMINISTRATION SITE CONDITIONS",
"GENERAL DISORDERS AND ADMINISTRATION SITE CONDITIONS",
null,
"EYE DISORDERS",
"EYE DISORDERS",
"EYE DISORDERS",
null,
"SKIN AND SUBCUTANEOUS TISSUE DISORDERS",
"GENERAL DISORDERS AND ADMINISTRATION SITE CONDITIONS",
"INFECTIONS AND INFESTATIONS",
"GENERAL DISORDERS AND ADMINISTRATION SITE CONDITIONS",
"GENERAL DISORDERS AND ADMINISTRATION SITE CONDITIONS",
"GENERAL DISORDERS AND ADMINISTRATION SITE CONDITIONS",
"GENERAL DISORDERS AND ADMINISTRATION SITE CONDITIONS",
"GENERAL DISORDERS AND ADMINISTRATION SITE CONDITIONS",
"GENERAL DISORDERS AND ADMINISTRATION SITE CONDITIONS",
"GENERAL DISORDERS AND ADMINISTRATION SITE CONDITIONS",
"GENERAL DISORDERS AND ADMINISTRATION SITE CONDITIONS",
"GENERAL DISORDERS AND ADMINISTRATION SITE CONDITIONS",
"GENERAL DISORDERS AND ADMINISTRATION SITE CONDITIONS",
"GENERAL DISORDERS AND ADMINISTRATION SITE CONDITIONS",
"GENERAL DISORDERS AND ADMINISTRATION SITE CONDITIONS",
"GENERAL DISORDERS AND ADMINISTRATION SITE CONDITIONS",
"SKIN AND SUBCUTANEOUS TISSUE DISORDERS",
"SKIN AND SUBCUTANEOUS TISSUE DISORDERS",
"GENERAL DISORDERS AND ADMINISTRATION SITE CONDITIONS",
"GENERAL DISORDERS AND ADMINISTRATION SITE CONDITIONS",
"RENAL AND URINARY DISORDERS",
"PSYCHIATRIC DISORDERS",
"GASTROINTESTINAL DISORDERS",
null,
"MUSCULOSKELETAL AND CONNECTIVE TISSUE DISORDERS",
"INFECTIONS AND INFESTATIONS",
"METABOLISM AND NUTRITION DISORDERS",
"GENERAL DISORDERS AND ADMINISTRATION SITE CONDITIONS",
"GENERAL DISORDERS AND ADMINISTRATION SITE CONDITIONS",
"GENERAL DISORDERS AND ADMINISTRATION SITE CONDITIONS",
"NERVOUS SYSTEM DISORDERS",
"RENAL AND URINARY DISORDERS",
"INFECTIONS AND INFESTATIONS",
"GASTROINTESTINAL DISORDERS",
"PSYCHIATRIC DISORDERS",
"GENERAL DISORDERS AND ADMINISTRATION SITE CONDITIONS",
"SKIN AND SUBCUTANEOUS TISSUE DISORDERS",
"SKIN AND SUBCUTANEOUS TISSUE DISORDERS",
"SKIN AND SUBCUTANEOUS TISSUE DISORDERS",
"SKIN AND SUBCUTANEOUS TISSUE DISORDERS",
"SKIN AND SUBCUTANEOUS TISSUE DISORDERS",
"SKIN AND SUBCUTANEOUS TISSUE DISORDERS",
"SKIN AND SUBCUTANEOUS TISSUE DISORDERS",
"GENERAL DISORDERS AND ADMINISTRATION SITE CONDITIONS",
"GENERAL DISORDERS AND ADMINISTRATION SITE CONDITIONS",
"GENERAL DISORDERS AND ADMINISTRATION SITE CONDITIONS",
null,
null,
"SKIN AND SUBCUTANEOUS TISSUE DISORDERS",
"MUSCULOSKELETAL AND CONNECTIVE TISSUE DISORDERS",
"INVESTIGATIONS",
"INFECTIONS AND INFESTATIONS",
"GENERAL DISORDERS AND ADMINISTRATION SITE CONDITIONS",
"SURGICAL AND MEDICAL PROCEDURES",
"GENERAL DISORDERS AND ADMINISTRATION SITE CONDITIONS",
"GENERAL DISORDERS AND ADMINISTRATION SITE CONDITIONS",
"PSYCHIATRIC DISORDERS",
null,
"RENAL AND URINARY DISORDERS",
null,
"MUSCULOSKELETAL AND CONNECTIVE TISSUE DISORDERS",
null,
