{
  "datasetJSONCreationDateTime": "2024-11-11T15:09:16",
  "datasetJSONVersion": "1.1.0",
  "fileOID": "www.cdisc.org/StudyMSGv2/1/Define-XML_2.1.0/2024-11-11/lb",
  "dbLastModifiedDateTime": "2020-08-21T09:14:29",
  "originator": "CDISC SDTM MSG Team",
  "sourceSystem": {
    "name": "SAS on X64_10PRO",
    "version": "9.0401M7"
  },
  "studyOID": "cdisc.com/CDISCPILOT01",
  "metaDataVersionOID": "MDV.MSGv2.0.SDTMIG.3.3.SDTM.1.7",
  "metaDataRef": "define.xml",
  "itemGroupOID": "IG.LB",
  "records": 3488,
  "name": "LB",
  "label": "Laboratory Test Results",
  "columns": [
    {
      "itemOID": "IT.LB.STUDYID",
      "name": "STUDYID",
      "label": "Study Identifier",
      "dataType": "string",
      "length": 12,
      "keySequence": 1
    },
    {
      "itemOID": "IT.LB.DOMAIN",
      "name": "DOMAIN",
      "label": "Domain Abbreviation",
      "dataType": "string",
      "length": 2
    },
    {
      "itemOID": "IT.LB.USUBJID",
      "name": "USUBJID",
      "label": "Unique Subject Identifier",
      "dataType": "string",
      "length": 8,
      "keySequence": 2
    },
    {
      "itemOID": "IT.LB.LBSEQ",
      "name": "LBSEQ",
      "label": "Sequence Number",
      "dataType": "integer"
    },
    {
      "itemOID": "IT.LB.LBTESTCD",
      "name": "LBTESTCD",
      "label": "Lab Test or Examination Short Name",
      "dataType": "string",
      "length": 7,
      "keySequence": 4
    },
    {
      "itemOID": "IT.LB.LBTEST",
      "name": "LBTEST",
      "label": "Lab Test or Examination Name",
      "dataType": "string",
      "length": 39
    },
    {
      "itemOID": "IT.LB.LBCAT",
      "name": "LBCAT",
      "label": "Category for Lab Test",
      "dataType": "string",
      "length": 10,
      "keySequence": 3
    },
    {
      "itemOID": "IT.LB.LBORRES",
      "name": "LBORRES",
      "label": "Result or Finding in Original Units",
      "dataType": "string",
      "length": 6
    },
    {
      "itemOID": "IT.LB.LBORRESU",
      "name": "LBORRESU",
      "label": "Original Units",
      "dataType": "string",
      "length": 7
    },
    {
      "itemOID": "IT.LB.LBORNRLO",
      "name": "LBORNRLO",
      "label": "Reference Range Lower Limit in Orig Unit",
      "dataType": "string",
      "length": 200
    },
    {
      "itemOID": "IT.LB.LBORNRHI",
      "name": "LBORNRHI",
      "label": "Reference Range Upper Limit in Orig Unit",
      "dataType": "string",
      "length": 200
    },
    {
      "itemOID": "IT.LB.LBSTRESC",
      "name": "LBSTRESC",
      "label": "Character Result/Finding in Std Format",
      "dataType": "string",
      "length": 8
    },
    {
      "itemOID": "IT.LB.LBSTRESN",
      "name": "LBSTRESN",
      "label": "Numeric Result/Finding in Standard Units",
      "dataType": "float"
    },
    {
      "itemOID": "IT.LB.LBSTRESU",
      "name": "LBSTRESU",
      "label": "Standard Units",
      "dataType": "string",
      "length": 7
    },
    {
      "itemOID": "IT.LB.LBSTNRLO",
      "name": "LBSTNRLO",
      "label": "Reference Range Lower Limit-Std Units",
      "dataType": "float"
    },
    {
      "itemOID": "IT.LB.LBSTNRHI",
      "name": "LBSTNRHI",
      "label": "Reference Range Upper Limit-Std Units",
      "dataType": "float"
    },
    {
      "itemOID": "IT.LB.LBNRIND",
      "name": "LBNRIND",
      "label": "Reference Range Indicator",
      "dataType": "string",
      "length": 8
    },
    {
      "itemOID": "IT.LB.LBLOBXFL",
      "name": "LBLOBXFL",
      "label": "Last Observation Before Exposure Flag",
      "dataType": "string",
      "length": 1
    },
    {
      "itemOID": "IT.LB.VISITNUM",
      "name": "VISITNUM",
      "label": "Visit Number",
      "dataType": "float",
      "keySequence": 6
    },
    {
      "itemOID": "IT.LB.VISIT",
      "name": "VISIT",
      "label": "Visit Name",
      "dataType": "string",
      "length": 200
    },
    {
      "itemOID": "IT.LB.EPOCH",
      "name": "EPOCH",
      "label": "Epoch",
      "dataType": "string",
      "length": 9
    },
    {
      "itemOID": "IT.LB.LBDTC",
      "name": "LBDTC",
      "label": "Date/Time of Specimen Collection",
      "dataType": "string",
      "keySequence": 5
    },
    {
      "itemOID": "IT.LB.LBDY",
      "name": "LBDY",
      "label": "Study Day of Specimen Collection",
      "dataType": "integer"
    }
  ],
  "rows": [
    [
      "CDISCPILOT01",
      "LB",
      "CDISC001",
      1,
      "ALB",
      "Albumin",
      "CHEMISTRY",
      "3.9",
      "g/dL",
      "3.5",
      "4.6",
      "39",
      39,
      "g/L",
      35,
      46,
      "NORMAL",
      "Y",
      1,
      "SCREENING 1",
      "SCREENING",
      "2012-11-23T11:20",
      -7
    ],
    [
      "CDISCPILOT01",
      "LB",
      "CDISC001",
      2,
      "ALP",
      "Alkaline Phosphatase",
      "CHEMISTRY",
      "93",
      "U/L",
      "35",
      "115",
      "93",
      93,
      "U/L",
      35,
      115,
      "NORMAL",
      "Y",
      1,
      "SCREENING 1",
      "SCREENING",
      "2012-11-23T11:20",
      -7
    ],
    [
      "CDISCPILOT01",
      "LB",
      "CDISC001",
      3,
      "ALT",
      "Alanine Aminotransferase",
      "CHEMISTRY",
      "18",
      "U/L",
      "6",
      "35",
      "18",
      18,
      "U/L",
      6,
      35,
      "NORMAL",
      "Y",
      1,
      "SCREENING 1",
      "SCREENING",
      "2012-11-23T11:20",
      -7
    ],
    [
      "CDISCPILOT01",
      "LB",
      "CDISC001",
      4,
      "AST",
      "Aspartate Aminotransferase",
      "CHEMISTRY",
      "26",
      "U/L",
      "11",
      "36",
      "26",
      26,
      "U/L",
      11,
      36,
      "NORMAL",
      "Y",
      1,
      "SCREENING 1",
      "SCREENING",
      "2012-11-23T11:20",
      -7
    ],
    [
      "CDISCPILOT01",
      "LB",
      "CDISC001",
      5,
      "BASO",
      "Basophils",
      "HEMATOLOGY",
      "0.03",
      "10^9/L",
      "0",
      "0.2",
      "0.03",
      0.03,
      "10^9/L",
      0,
      0.2,
      "NORMAL",
      "Y",
      1,
      "SCREENING 1",
      "SCREENING",
      "2012-11-23T11:20",
      -7
    ],
    [
      "CDISCPILOT01",
      "LB",
      "CDISC001",
      6,
      "BILI",
      "Bilirubin",
      "CHEMISTRY",
      "0.5",
      "mg/dL",
      "0.2",
      "1.2",
      "8.55",
      8.55,
      "umol/L",
      3,
      21,
      "NORMAL",
      "Y",
      1,
      "SCREENING 1",
      "SCREENING",
      "2012-11-23T11:20",
      -7
    ],
    [
      "CDISCPILOT01",
      "LB",
      "CDISC001",
      7,
      "UREAN",
      "Urea Nitrogen",
      "CHEMISTRY",
      "21",
      "mg/dL",
      "4",
      "24",
      "7.497",
      7.497,
      "mmol/L",
      1.4,
      8.6,
      "NORMAL",
      "Y",
      1,
      "SCREENING 1",
      "SCREENING",
      "2012-11-23T11:20",
      -7
    ],
    [
      "CDISCPILOT01",
      "LB",
      "CDISC001",
      8,
      "CA",
      "Calcium",
      "CHEMISTRY",
      "9.1",
      "mg/dL",
      "8.4",
      "10.3",
      "2.27045",
      2.27045,
      "mmol/L",
      2.1,
      2.57,
      "NORMAL",
      "Y",
      1,
      "SCREENING 1",
      "SCREENING",
      "2012-11-23T11:20",
      -7
    ],
    [
      "CDISCPILOT01",
      "LB",
      "CDISC001",
      9,
      "CHOL",
      "Cholesterol",
      "CHEMISTRY",
      "254",
      "mg/dL",
      "149",
      "286",
      "6.56844",
      6.56844,
      "mmol/L",
      3.85,
      7.4,
      "NORMAL",
      "Y",
      1,
      "SCREENING 1",
      "SCREENING",
      "2012-11-23T11:20",
      -7
    ],
    [
      "CDISCPILOT01",
      "LB",
      "CDISC001",
      10,
      "CK",
      "Creatine Kinase",
      "CHEMISTRY",
      "79",
      "U/L",
      "22",
      "198",
      "79",
      79,
      "U/L",
      22,
      198,
      "NORMAL",
      "Y",
      1,
      "SCREENING 1",
      "SCREENING",
      "2012-11-23T11:20",
      -7
    ],
    [
      "CDISCPILOT01",
      "LB",
      "CDISC001",
      11,
      "CL",
      "Chloride",
      "CHEMISTRY",
      "102",
      "mEq/L",
      "94",
      "112",
      "102",
      102,
      "mmol/L",
      94,
      112,
      "NORMAL",
      "Y",
      1,
      "SCREENING 1",
      "SCREENING",
      "2012-11-23T11:20",
      -7
    ],
    [
      "CDISCPILOT01",
      "LB",
      "CDISC001",
      12,
      "COLOR",
      "Color",
      "URINALYSIS",
      "NORMAL",
      "",
      "",
      "",
      "NORMAL",
      null,
      "",
      null,
      null,
      "NORMAL",
      "Y",
      1,
      "SCREENING 1",
      "SCREENING",
      "2012-11-23T11:20",
      -7
    ],
    [
      "CDISCPILOT01",
      "LB",
      "CDISC001",
      13,
      "CREAT",
      "Creatinine",
      "CHEMISTRY",
      "1.3",
      "mg/dL",
      "0.8",
      "1.6",
      "114.92",
      114.92,
      "umol/L",
      71,
      141,
      "NORMAL",
      "Y",
      1,
      "SCREENING 1",
      "SCREENING",
      "2012-11-23T11:20",
      -7
    ],
    [
      "CDISCPILOT01",
      "LB",
      "CDISC001",
      14,
      "EOS",
      "Eosinophils",
      "HEMATOLOGY",
      "0.08",
      "10^9/L",
      "0",
      "0.57",
      "0.08",
      0.08,
      "10^9/L",
      0,
      0.57,
      "NORMAL",
      "Y",
      1,
      "SCREENING 1",
      "SCREENING",
      "2012-11-23T11:20",
      -7
    ],
    [
      "CDISCPILOT01",
      "LB",
      "CDISC001",
      15,
      "GGT",
      "Gamma Glutamyl Transferase",
      "CHEMISTRY",
      "31",
      "U/L",
      "10",
      "50",
      "31",
      31,
      "U/L",
      10,
      50,
      "NORMAL",
      "Y",
      1,
      "SCREENING 1",
      "SCREENING",
      "2012-11-23T11:20",
      -7
    ],
    [
      "CDISCPILOT01",
      "LB",
      "CDISC001",
      16,
      "GLUC",
      "Glucose",
      "CHEMISTRY",
      "74",
      "mg/dL",
      "50",
      "250",
      "4.10774",
      4.10774,
      "mmol/L",
      2.8,
      13.9,
      "NORMAL",
      "Y",
      1,
      "SCREENING 1",
      "SCREENING",
      "2012-11-23T11:20",
      -7
    ],
    [
      "CDISCPILOT01",
      "LB",
      "CDISC001",
      17,
      "HCT",
      "Hematocrit",
      "HEMATOLOGY",
      "46.0",
      "%",
      "37",
      "51",
      "0.46",
      0.46,
      "",
      0.37,
      0.51,
      "NORMAL",
      "Y",
      1,
      "SCREENING 1",
      "SCREENING",
      "2012-11-23T11:20",
      -7
    ],
    [
      "CDISCPILOT01",
      "LB",
      "CDISC001",
      18,
      "HGB",
      "Hemoglobin",
      "HEMATOLOGY",
      "14.9",
      "g/dL",
      "12.5",
      "17",
      "9.24694",
      9.24694,
      "mmol/L",
      7.76,
      10.55,
      "NORMAL",
      "Y",
      1,
      "SCREENING 1",
      "SCREENING",
      "2012-11-23T11:20",
      -7
    ],
    [
      "CDISCPILOT01",
      "LB",
      "CDISC001",
      19,
      "K",
      "Potassium",
      "CHEMISTRY",
      "4.3",
      "mEq/L",
      "3.4",
      "5.4",
      "4.3",
      4.3,
      "mmol/L",
      3.4,
      5.4,
      "NORMAL",
      "Y",
      1,
      "SCREENING 1",
      "SCREENING",
      "2012-11-23T11:20",
      -7
    ],
    [
      "CDISCPILOT01",
      "LB",
      "CDISC001",
      20,
      "KETONES",
      "Ketones",
      "URINALYSIS",
      "0",
      "",
      "",
      "",
      "0",
      0,
      "",
      null,
      null,
      "NORMAL",
      "Y",
      1,
      "SCREENING 1",
      "SCREENING",
      "2012-11-23T11:20",
      -7
    ],
    [
      "CDISCPILOT01",
      "LB",
      "CDISC001",
      21,
      "LYM",
      "Lymphocytes",
      "HEMATOLOGY",
      "1.20",
      "10^9/L",
      "0.8",
      "3",
      "1.2",
      1.2,
      "10^9/L",
      0.8,
      3,
      "NORMAL",
      "Y",
      1,
      "SCREENING 1",
      "SCREENING",
      "2012-11-23T11:20",
      -7
    ],
    [
      "CDISCPILOT01",
      "LB",
      "CDISC001",
      22,
      "MCH",
      "Ery. Mean Corpuscular Hemoglobin",
      "HEMATOLOGY",
      "30",
      "pg",
      "26",
      "34",
      "1.8618",
      1.8618,
      "fmol",
      1.6,
      2.1,
      "NORMAL",
      "Y",
      1,
      "SCREENING 1",
      "SCREENING",
      "2012-11-23T11:20",
      -7
    ],
    [
      "CDISCPILOT01",
      "LB",
      "CDISC001",
      23,
      "MCHC",
      "Ery. Mean Corpuscular HGB Concentration",
      "HEMATOLOGY",
      "33",
      "g/dL",
      "31",
      "38",
      "20.4798",
      20.4798,
      "mmol/L",
      19,
      24,
      "NORMAL",
      "Y",
      1,
      "SCREENING 1",
      "SCREENING",
      "2012-11-23T11:20",
      -7
    ],
    [
      "CDISCPILOT01",
      "LB",
      "CDISC001",
      24,
      "MCV",
      "Ery. Mean Corpuscular Volume",
      "HEMATOLOGY",
      "92",
      "fL",
      "80",
      "100",
      "92",
      92,
      "fL",
      80,
      100,
      "NORMAL",
      "Y",
      1,
      "SCREENING 1",
      "SCREENING",
      "2012-11-23T11:20",
      -7
    ],
    [
      "CDISCPILOT01",
      "LB",
      "CDISC001",
      25,
      "MONO",
      "Monocytes",
      "HEMATOLOGY",
      "0.38",
      "10^9/L",
      "0.12",
      "0.92",
      "0.38",
      0.38,
      "10^9/L",
      0.12,
      0.92,
      "NORMAL",
      "Y",
      1,
      "SCREENING 1",
      "SCREENING",
      "2012-11-23T11:20",
      -7
    ],
    [
      "CDISCPILOT01",
      "LB",
      "CDISC001",
      26,
      "SODIUM",
      "Sodium",
      "CHEMISTRY",
      "139",
      "mEq/L",
      "135",
      "145",
      "139",
      139,
      "mmol/L",
      135,
      145,
      "NORMAL",
      "Y",
      1,
      "SCREENING 1",
      "SCREENING",
      "2012-11-23T11:20",
      -7
    ],
    [
      "CDISCPILOT01",
      "LB",
      "CDISC001",
      27,
      "PH",
      "pH",
      "URINALYSIS",
      "5",
      "",
      "5",
      "8",
      "5",
      5,
      "",
      5,
      8,
      "NORMAL",
      "Y",
      1,
      "SCREENING 1",
      "SCREENING",
      "2012-11-23T11:20",
      -7
    ],
    [
      "CDISCPILOT01",
      "LB",
      "CDISC001",
      28,
      "PHOS",
      "Phosphate",
      "CHEMISTRY",
      "3.4",
      "mg/dL",
      "2.2",
      "5.1",
      "1.09786",
      1.09786,
      "mmol/L",
      0.71,
      1.65,
      "NORMAL",
      "Y",
      1,
      "SCREENING 1",
      "SCREENING",
      "2012-11-23T11:20",
      -7
    ],
    [
      "CDISCPILOT01",
      "LB",
      "CDISC001",
      29,
      "PLAT",
      "Platelets",
      "HEMATOLOGY",
      "150",
      "10^9/L",
      "130",
      "394",
      "150",
      150,
      "10^9/L",
      130,
      394,
      "NORMAL",
      "Y",
      1,
      "SCREENING 1",
      "SCREENING",
      "2012-11-23T11:20",
      -7
    ],
    [
      "CDISCPILOT01",
      "LB",
      "CDISC001",
      30,
      "PROT",
      "Protein",
      "CHEMISTRY",
      "6.7",
      "g/dL",
      "6",
      "8",
      "67",
      67,
      "g/L",
      60,
      80,
      "NORMAL",
      "Y",
      1,
      "SCREENING 1",
      "SCREENING",
      "2012-11-23T11:20",
      -7
    ],
    [
      "CDISCPILOT01",
      "LB",
      "CDISC001",
      31,
      "RBC",
      "Erythrocytes",
      "HEMATOLOGY",
      "5.00",
      "10^12/L",
      "4",
      "5.8",
      "5",
      5,
      "10^12/L",
      4,
      5.8,
      "NORMAL",
      "Y",
      1,
      "SCREENING 1",
      "SCREENING",
      "2012-11-23T11:20",
      -7
    ],
    [
      "CDISCPILOT01",
      "LB",
      "CDISC001",
      32,
      "SPGRAV",
      "Specific Gravity",
      "URINALYSIS",
      "1.017",
      "",
      "1.006",
      "1.03",
      "1.017",
      1.017,
      "",
      1.006,
      1.03,
      "NORMAL",
      "Y",
      1,
      "SCREENING 1",
      "SCREENING",
      "2012-11-23T11:20",
      -7
    ],
    [
      "CDISCPILOT01",
      "LB",
      "CDISC001",
      33,
      "TSH",
      "Thyrotropin",
      "OTHER",
      "2.63",
      "mIU/L",
      ".32",
      "5",
      "2.63",
      2.63,
      "mU/L",
      0.32,
      5,
      "NORMAL",
      "Y",
      1,
      "SCREENING 1",
      "SCREENING",
      "2012-11-23T11:20",
      -7
    ],
    [
      "CDISCPILOT01",
      "LB",
      "CDISC001",
      34,
      "URATE",
      "Urate",
      "CHEMISTRY",
      "4.9",
      "mg/dL",
      "2.5",
      "7.5",
      "291.452",
      291.452,
      "umol/L",
      149,
      446,
      "NORMAL",
      "Y",
      1,
      "SCREENING 1",
      "SCREENING",
      "2012-11-23T11:20",
      -7
    ],
    [
      "CDISCPILOT01",
      "LB",
      "CDISC001",
      35,
      "UROBIL",
      "Urobilinogen",
      "URINALYSIS",
      "0",
      "",
      "",
      "",
      "0",
      0,
      "",
      null,
      null,
      "NORMAL",
      "Y",
      1,
      "SCREENING 1",
      "SCREENING",
      "2012-11-23T11:20",
      -7
    ],
    [
      "CDISCPILOT01",
      "LB",
      "CDISC001",
      36,
      "VITB12",
      "Vitamin B12",
      "OTHER",
      "641",
      "ng/L",
      "200",
      "900",
      "472.9298",
      472.9298,
      "pmol/L",
      148,
      664,
      "NORMAL",
      "Y",
      1,
      "SCREENING 1",
      "SCREENING",
      "2012-11-23T11:20",
      -7
    ],
    [
      "CDISCPILOT01",
      "LB",
      "CDISC001",
      37,
      "WBC",
      "Leukocytes",
      "HEMATOLOGY",
      "4.99",
      "10^9/L",
      "3.8",
      "10.7",
      "4.99",
      4.99,
      "10^9/L",
      3.8,
      10.7,
      "NORMAL",
      "Y",
      1,
      "SCREENING 1",
      "SCREENING",
      "2012-11-23T11:20",
      -7
    ],
    [
      "CDISCPILOT01",
      "LB",
      "CDISC001",
      38,
      "ALB",
      "Albumin",
      "CHEMISTRY",
      "3.6",
      "g/dL",
      "3.5",
      "4.6",
      "36",
      36,
      "g/L",
      35,
      46,
      "NORMAL",
      "",
      4,
      "WEEK 2",
      "TREATMENT",
      "2012-12-13T14:05",
      14
    ],
    [
      "CDISCPILOT01",
      "LB",
      "CDISC001",
      39,
      "ALP",
      "Alkaline Phosphatase",
      "CHEMISTRY",
      "88",
      "U/L",
      "35",
      "115",
      "88",
      88,
      "U/L",
      35,
      115,
      "NORMAL",
      "",
      4,
      "WEEK 2",
      "TREATMENT",
      "2012-12-13T14:05",
      14
    ],
    [
      "CDISCPILOT01",
      "LB",
      "CDISC001",
      40,
      "ALT",
      "Alanine Aminotransferase",
      "CHEMISTRY",
      "15",
      "U/L",
      "6",
      "35",
      "15",
      15,
      "U/L",
      6,
      35,
      "NORMAL",
      "",
      4,
      "WEEK 2",
      "TREATMENT",
      "2012-12-13T14:05",
      14
    ],
    [
      "CDISCPILOT01",
      "LB",
      "CDISC001",
      41,
      "AST",
      "Aspartate Aminotransferase",
      "CHEMISTRY",
      "25",
      "U/L",
      "11",
      "36",
      "25",
      25,
      "U/L",
      11,
      36,
      "NORMAL",
      "",
      4,
      "WEEK 2",
      "TREATMENT",
      "2012-12-13T14:05",
      14
    ],
    [
      "CDISCPILOT01",
      "LB",
      "CDISC001",
      42,
      "BASO",
      "Basophils",
      "HEMATOLOGY",
      "0.04",
      "10^9/L",
      "0",
      "0.2",
      "0.04",
      0.04,
      "10^9/L",
      0,
      0.2,
      "NORMAL",
      "",
      4,
      "WEEK 2",
      "TREATMENT",
      "2012-12-13T14:05",
      14
    ],
    [
      "CDISCPILOT01",
      "LB",
      "CDISC001",
      43,
      "BILI",
      "Bilirubin",
      "CHEMISTRY",
      "0.4",
      "mg/dL",
      "0.2",
      "1.2",
      "6.84",
      6.84,
      "umol/L",
      3,
      21,
      "NORMAL",
      "",
      4,
      "WEEK 2",
      "TREATMENT",
      "2012-12-13T14:05",
      14
    ],
    [
      "CDISCPILOT01",
      "LB",
      "CDISC001",
      44,
      "UREAN",
      "Urea Nitrogen",
      "CHEMISTRY",
      "22",
      "mg/dL",
      "4",
      "24",
      "7.854",
      7.854,
      "mmol/L",
      1.4,
      8.6,
      "NORMAL",
      "",
      4,
      "WEEK 2",
      "TREATMENT",
      "2012-12-13T14:05",
      14
    ],
    [
      "CDISCPILOT01",
      "LB",
      "CDISC001",
      45,
      "CA",
      "Calcium",
      "CHEMISTRY",
      "8.9",
      "mg/dL",
      "8.4",
      "10.3",
      "2.22055",
      2.22055,
      "mmol/L",
      2.1,
      2.57,
      "NORMAL",
      "",
      4,
      "WEEK 2",
      "TREATMENT",
      "2012-12-13T14:05",
      14
    ],
    [
      "CDISCPILOT01",
      "LB",
      "CDISC001",
      46,
      "CHOL",
      "Cholesterol",
      "CHEMISTRY",
      "226",
      "mg/dL",
      "149",
      "286",
      "5.84436",
      5.84436,
      "mmol/L",
      3.85,
      7.4,
      "NORMAL",
      "",
      4,
      "WEEK 2",
      "TREATMENT",
      "2012-12-13T14:05",
      14
    ],
    [
      "CDISCPILOT01",
      "LB",
      "CDISC001",
      47,
      "CK",
      "Creatine Kinase",
      "CHEMISTRY",
      "73",
      "U/L",
      "22",
      "198",
      "73",
      73,
      "U/L",
      22,
      198,
      "NORMAL",
      "",
      4,
      "WEEK 2",
      "TREATMENT",
      "2012-12-13T14:05",
      14
    ],
    [
      "CDISCPILOT01",
      "LB",
      "CDISC001",
      48,
      "CL",
      "Chloride",
      "CHEMISTRY",
      "107",
      "mEq/L",
      "94",
      "112",
      "107",
      107,
      "mmol/L",
      94,
      112,
      "NORMAL",
      "",
      4,
      "WEEK 2",
      "TREATMENT",
      "2012-12-13T14:05",
      14
    ],
    [
      "CDISCPILOT01",
      "LB",
      "CDISC001",
      49,
      "COLOR",
      "Color",
      "URINALYSIS",
      "NORMAL",
      "",
      "",
      "",
      "NORMAL",
      null,
      "",
      null,
      null,
      "NORMAL",
      "",
      4,
      "WEEK 2",
      "TREATMENT",
      "2012-12-13T14:05",
      14
    ],
    [
      "CDISCPILOT01",
      "LB",
      "CDISC001",
      50,
      "CREAT",
      "Creatinine",
      "CHEMISTRY",
      "1.3",
      "mg/dL",
      "0.8",
      "1.6",
      "114.92",
      114.92,
      "umol/L",
      71,
      141,
      "NORMAL",
      "",
      4,
      "WEEK 2",
      "TREATMENT",
      "2012-12-13T14:05",
      14
    ],
    [
      "CDISCPILOT01",
      "LB",
      "CDISC001",
      51,
      "EOS",
      "Eosinophils",
      "HEMATOLOGY",
      "0.08",
      "10^9/L",
      "0",
      "0.57",
      "0.08",
      0.08,
      "10^9/L",
      0,
      0.57,
      "NORMAL",
      "",
      4,
      "WEEK 2",
      "TREATMENT",
      "2012-12-13T14:05",
      14
    ],
    [
      "CDISCPILOT01",
      "LB",
      "CDISC001",
      52,
      "GGT",
      "Gamma Glutamyl Transferase",
      "CHEMISTRY",
      "31",
      "U/L",
      "10",
      "50",
      "31",
      31,
      "U/L",
      10,
      50,
      "NORMAL",
      "",
      4,
      "WEEK 2",
      "TREATMENT",
      "2012-12-13T14:05",
      14
    ],
    [
      "CDISCPILOT01",
      "LB",
      "CDISC001",
      53,
      "GLUC",
      "Glucose",
      "CHEMISTRY",
      "85",
      "mg/dL",
      "50",
      "250",
      "4.71835",
      4.71835,
      "mmol/L",
      2.8,
      13.9,
      "NORMAL",
      "",
      4,
      "WEEK 2",
      "TREATMENT",
      "2012-12-13T14:05",
      14
    ],
    [
      "CDISCPILOT01",
      "LB",
      "CDISC001",
      54,
      "HCT",
      "Hematocrit",
      "HEMATOLOGY",
      "45.0",
      "%",
      "37",
      "51",
      "0.45",
      0.45,
      "",
      0.37,
      0.51,
      "NORMAL",
      "",
      4,
      "WEEK 2",
      "TREATMENT",
      "2012-12-13T14:05",
      14
    ],
    [
      "CDISCPILOT01",
      "LB",
      "CDISC001",
      55,
      "HGB",
      "Hemoglobin",
      "HEMATOLOGY",
      "14.6",
      "g/dL",
      "12.5",
      "17",
      "9.06076",
      9.06076,
      "mmol/L",
      7.76,
      10.55,
      "NORMAL",
      "",
      4,
      "WEEK 2",
      "TREATMENT",
      "2012-12-13T14:05",
      14
    ],
    [
      "CDISCPILOT01",
      "LB",
      "CDISC001",
      56,
      "K",
      "Potassium",
      "CHEMISTRY",
      "5.1",
      "mEq/L",
      "3.4",
      "5.4",
      "5.1",
      5.1,
      "mmol/L",
      3.4,
      5.4,
      "NORMAL",
      "",
      4,
      "WEEK 2",
      "TREATMENT",
      "2012-12-13T14:05",
      14
    ],
    [
      "CDISCPILOT01",
      "LB",
      "CDISC001",
      57,
      "KETONES",
      "Ketones",
      "URINALYSIS",
      "0",
      "",
      "",
      "",
      "0",
      0,
      "",
      null,
      null,
      "NORMAL",
      "",
      4,
      "WEEK 2",
      "TREATMENT",
      "2012-12-13T14:05",
      14
    ],
    [
      "CDISCPILOT01",
      "LB",
      "CDISC001",
      58,
      "LYM",
      "Lymphocytes",
      "HEMATOLOGY",
      "1.48",
      "10^9/L",
      "0.8",
      "3",
      "1.48",
      1.48,
      "10^9/L",
      0.8,
      3,
      "NORMAL",
      "",
      4,
      "WEEK 2",
      "TREATMENT",
      "2012-12-13T14:05",
      14
    ],
    [
      "CDISCPILOT01",
      "LB",
      "CDISC001",
      59,
      "MCH",
      "Ery. Mean Corpuscular Hemoglobin",
      "HEMATOLOGY",
      "31",
      "pg",
      "26",
      "34",
      "1.92386",
      1.92386,
      "fmol",
      1.6,
      2.1,
      "NORMAL",
      "",
      4,
      "WEEK 2",
      "TREATMENT",
      "2012-12-13T14:05",
      14
    ],
    [
      "CDISCPILOT01",
      "LB",
      "CDISC001",
      60,
      "MCHC",
      "Ery. Mean Corpuscular HGB Concentration",
      "HEMATOLOGY",
      "33",
      "g/dL",
      "31",
      "38",
      "20.4798",
      20.4798,
      "mmol/L",
      19,
      24,
      "NORMAL",
      "",
      4,
      "WEEK 2",
      "TREATMENT",
      "2012-12-13T14:05",
      14
    ],
    [
      "CDISCPILOT01",
      "LB",
      "CDISC001",
      61,
      "MCV",
      "Ery. Mean Corpuscular Volume",
      "HEMATOLOGY",
      "96",
      "fL",
      "80",
      "100",
      "96",
      96,
      "fL",
      80,
      100,
      "NORMAL",
      "",
      4,
      "WEEK 2",
      "TREATMENT",
      "2012-12-13T14:05",
      14
    ],
    [
      "CDISCPILOT01",
      "LB",
      "CDISC001",
      62,
      "MONO",
      "Monocytes",
      "HEMATOLOGY",
      "0.36",
      "10^9/L",
      "0.12",
      "0.92",
      "0.36",
      0.36,
      "10^9/L",
      0.12,
      0.92,
      "NORMAL",
      "",
      4,
      "WEEK 2",
      "TREATMENT",
      "2012-12-13T14:05",
      14
    ],
    [
      "CDISCPILOT01",
      "LB",
      "CDISC001",
      63,
      "SODIUM",
      "Sodium",
      "CHEMISTRY",
      "142",
      "mEq/L",
      "135",
      "145",
      "142",
      142,
      "mmol/L",
      135,
      145,
      "NORMAL",
      "",
      4,
      "WEEK 2",
      "TREATMENT",
      "2012-12-13T14:05",
      14
    ],
    [
      "CDISCPILOT01",
      "LB",
      "CDISC001",
      64,
      "PH",
      "pH",
      "URINALYSIS",
      "5",
      "",
      "5",
      "8",
      "5",
      5,
      "",
      5,
      8,
      "NORMAL",
      "",
      4,
      "WEEK 2",
      "TREATMENT",
      "2012-12-13T14:05",
      14
    ],
    [
      "CDISCPILOT01",
      "LB",
      "CDISC001",
      65,
      "PHOS",
      "Phosphate",
      "CHEMISTRY",
      "3.7",
      "mg/dL",
      "2.2",
      "5.1",
      "1.19473",
      1.19473,
      "mmol/L",
      0.71,
      1.65,
      "NORMAL",
      "",
      4,
      "WEEK 2",
      "TREATMENT",
      "2012-12-13T14:05",
      14
    ],
    [
      "CDISCPILOT01",
      "LB",
      "CDISC001",
      66,
      "PLAT",
      "Platelets",
      "HEMATOLOGY",
      "190",
      "10^9/L",
      "130",
      "394",
      "190",
      190,
      "10^9/L",
      130,
      394,
      "NORMAL",
      "",
      4,
      "WEEK 2",
      "TREATMENT",
      "2012-12-13T14:05",
      14
    ],
    [
      "CDISCPILOT01",
      "LB",
      "CDISC001",
      67,
      "PROT",
      "Protein",
      "CHEMISTRY",
      "6.3",
      "g/dL",
      "6",
      "8",
      "63",
      63,
      "g/L",
      60,
      80,
      "NORMAL",
      "",
      4,
      "WEEK 2",
      "TREATMENT",
      "2012-12-13T14:05",
      14
    ],
    [
      "CDISCPILOT01",
      "LB",
      "CDISC001",
      68,
      "RBC",
      "Erythrocytes",
      "HEMATOLOGY",
      "4.70",
      "10^12/L",
      "4",
      "5.8",
      "4.7",
      4.7,
      "10^12/L",
      4,
      5.8,
      "NORMAL",
      "",
      4,
      "WEEK 2",
      "TREATMENT",
      "2012-12-13T14:05",
      14
    ],
    [
      "CDISCPILOT01",
      "LB",
      "CDISC001",
      69,
      "SPGRAV",
      "Specific Gravity",
      "URINALYSIS",
      "1.023",
      "",
      "1.006",
      "1.03",
      "1.023",
      1.023,
      "",
      1.006,
      1.03,
      "NORMAL",
      "",
      4,
      "WEEK 2",
      "TREATMENT",
      "2012-12-13T14:05",
      14
    ],
    [
      "CDISCPILOT01",
      "LB",
      "CDISC001",
      70,
      "URATE",
      "Urate",
      "CHEMISTRY",
      "4.4",
      "mg/dL",
      "2.5",
      "7.5",
      "261.712",
      261.712,
      "umol/L",
      149,
      446,
      "NORMAL",
      "",
      4,
      "WEEK 2",
      "TREATMENT",
      "2012-12-13T14:05",
      14
    ],
    [
      "CDISCPILOT01",
      "LB",
      "CDISC001",
      71,
      "UROBIL",
      "Urobilinogen",
      "URINALYSIS",
      "0",
      "",
      "",
      "",
      "0",
      0,
      "",
      null,
      null,
      "NORMAL",
      "",
      4,
      "WEEK 2",
      "TREATMENT",
      "2012-12-13T14:05",
      14
    ],
    [
      "CDISCPILOT01",
      "LB",
      "CDISC001",
      72,
      "WBC",
      "Leukocytes",
      "HEMATOLOGY",
      "4.44",
      "10^9/L",
      "3.8",
      "10.7",
      "4.44",
      4.44,
      "10^9/L",
      3.8,
      10.7,
      "NORMAL",
      "",
      4,
      "WEEK 2",
      "TREATMENT",
      "2012-12-13T14:05",
      14
    ],
    [
      "CDISCPILOT01",
      "LB",
      "CDISC001",
      73,
      "ALB",
      "Albumin",
      "CHEMISTRY",
      "3.5",
      "g/dL",
      "3.5",
      "4.6",
      "35",
      35,
      "g/L",
      35,
      46,
      "NORMAL",
      "",
      5,
      "WEEK 4",
      "TREATMENT",
      "2012-12-26T08:44",
      27
    ],
    [
      "CDISCPILOT01",
      "LB",
      "CDISC001",
      74,
      "ALP",
      "Alkaline Phosphatase",
      "CHEMISTRY",
      "91",
      "U/L",
      "35",
      "115",
      "91",
      91,
      "U/L",
      35,
      115,
      "NORMAL",
      "",
      5,
      "WEEK 4",
      "TREATMENT",
      "2012-12-26T08:44",
      27
    ],
    [
      "CDISCPILOT01",
      "LB",
      "CDISC001",
      75,
      "ALT",
      "Alanine Aminotransferase",
      "CHEMISTRY",
      "13",
      "U/L",
      "6",
      "35",
      "13",
      13,
      "U/L",
      6,
      35,
      "NORMAL",
      "",
      5,
      "WEEK 4",
      "TREATMENT",
      "2012-12-26T08:44",
      27
    ],
    [
      "CDISCPILOT01",
      "LB",
      "CDISC001",
      76,
      "AST",
      "Aspartate Aminotransferase",
      "CHEMISTRY",
      "20",
      "U/L",
      "11",
      "36",
      "20",
      20,
      "U/L",
      11,
      36,
      "NORMAL",
      "",
      5,
      "WEEK 4",
      "TREATMENT",
      "2012-12-26T08:44",
      27
    ],
    [
      "CDISCPILOT01",
      "LB",
      "CDISC001",
      77,
      "BASO",
      "Basophils",
      "HEMATOLOGY",
      "0.05",
      "10^9/L",
      "0",
      "0.2",
      "0.05",
      0.05,
      "10^9/L",
      0,
      0.2,
      "NORMAL",
      "",
      5,
      "WEEK 4",
      "TREATMENT",
      "2012-12-26T08:44",
      27
    ],
    [
      "CDISCPILOT01",
      "LB",
      "CDISC001",
      78,
      "BILI",
      "Bilirubin",
      "CHEMISTRY",
      "0.4",
      "mg/dL",
      "0.2",
      "1.2",
      "6.84",
      6.84,
      "umol/L",
      3,
      21,
      "NORMAL",
      "",
      5,
      "WEEK 4",
      "TREATMENT",
      "2012-12-26T08:44",
      27
    ],
    [
      "CDISCPILOT01",
      "LB",
      "CDISC001",
      79,
      "UREAN",
      "Urea Nitrogen",
      "CHEMISTRY",
      "20",
      "mg/dL",
      "4",
      "24",
      "7.14",
      7.14,
      "mmol/L",
      1.4,
      8.6,
      "NORMAL",
      "",
      5,
      "WEEK 4",
      "TREATMENT",
      "2012-12-26T08:44",
      27
    ],
    [
      "CDISCPILOT01",
      "LB",
      "CDISC001",
      80,
      "CA",
      "Calcium",
      "CHEMISTRY",
      "9.2",
      "mg/dL",
      "8.4",
      "10.3",
      "2.2954",
      2.2954,
      "mmol/L",
      2.1,
      2.57,
      "NORMAL",
      "",
      5,
      "WEEK 4",
      "TREATMENT",
      "2012-12-26T08:44",
      27
    ],
    [
      "CDISCPILOT01",
      "LB",
      "CDISC001",
      81,
      "CHOL",
      "Cholesterol",
      "CHEMISTRY",
      "219",
      "mg/dL",
      "149",
      "286",
      "5.66334",
      5.66334,
      "mmol/L",
      3.85,
      7.4,
      "NORMAL",
      "",
      5,
      "WEEK 4",
      "TREATMENT",
      "2012-12-26T08:44",
      27
    ],
    [
      "CDISCPILOT01",
      "LB",
      "CDISC001",
      82,
      "CK",
      "Creatine Kinase",
      "CHEMISTRY",
      "75",
      "U/L",
      "22",
      "198",
      "75",
      75,
      "U/L",
      22,
      198,
      "NORMAL",
      "",
      5,
      "WEEK 4",
      "TREATMENT",
      "2012-12-26T08:44",
      27
    ],
    [
      "CDISCPILOT01",
      "LB",
      "CDISC001",
      83,
      "CL",
      "Chloride",
      "CHEMISTRY",
      "106",
      "mEq/L",
      "94",
      "112",
      "106",
      106,
      "mmol/L",
      94,
      112,
      "NORMAL",
      "",
      5,
      "WEEK 4",
      "TREATMENT",
      "2012-12-26T08:44",
      27
    ],
    [
      "CDISCPILOT01",
      "LB",
      "CDISC001",
      84,
      "CREAT",
      "Creatinine",
      "CHEMISTRY",
      "1.3",
      "mg/dL",
      "0.8",
      "1.6",
      "114.92",
      114.92,
      "umol/L",
      71,
      141,
      "NORMAL",
      "",
      5,
      "WEEK 4",
      "TREATMENT",
      "2012-12-26T08:44",
      27
    ],
    [
      "CDISCPILOT01",
      "LB",
      "CDISC001",
      85,
      "EOS",
      "Eosinophils",
      "HEMATOLOGY",
      "0.07",
      "10^9/L",
      "0",
      "0.57",
      "0.07",
      0.07,
      "10^9/L",
      0,
      0.57,
      "NORMAL",
      "",
      5,
      "WEEK 4",
      "TREATMENT",
      "2012-12-26T08:44",
      27
    ],
    [
      "CDISCPILOT01",
      "LB",
      "CDISC001",
      86,
      "GGT",
      "Gamma Glutamyl Transferase",
      "CHEMISTRY",
      "30",
      "U/L",
      "10",
      "50",
      "30",
      30,
      "U/L",
      10,
      50,
      "NORMAL",
      "",
      5,
      "WEEK 4",
      "TREATMENT",
      "2012-12-26T08:44",
      27
    ],
    [
      "CDISCPILOT01",
      "LB",
      "CDISC001",
      87,
      "GLUC",
      "Glucose",
      "CHEMISTRY",
      "<40",
      "mg/dL",
      "50",
      "250",
      "<2.2204",
      null,
      "mmol/L",
      2.8,
      13.9,
      "LOW",
      "",
      5,
      "WEEK 4",
      "TREATMENT",
      "2012-12-26T08:44",
      27
    ],
    [
      "CDISCPILOT01",
      "LB",
      "CDISC001",
      88,
      "HCT",
      "Hematocrit",
      "HEMATOLOGY",
      "45.0",
      "%",
      "37",
      "51",
      "0.45",
      0.45,
      "",
      0.37,
      0.51,
      "NORMAL",
      "",
      5,
      "WEEK 4",
      "TREATMENT",
      "2012-12-26T08:44",
      27
    ],
    [
      "CDISCPILOT01",
      "LB",
      "CDISC001",
      89,
      "HGB",
      "Hemoglobin",
      "HEMATOLOGY",
      "14.6",
      "g/dL",
      "12.5",
      "17",
      "9.06076",
      9.06076,
      "mmol/L",
      7.76,
      10.55,
      "NORMAL",
      "",
      5,
      "WEEK 4",
      "TREATMENT",
      "2012-12-26T08:44",
      27
    ],
    [
      "CDISCPILOT01",
      "LB",
      "CDISC001",
      90,
      "K",
      "Potassium",
      "CHEMISTRY",
      "4.7",
      "mEq/L",
      "3.4",
      "5.4",
      "4.7",
      4.7,
      "mmol/L",
      3.4,
      5.4,
      "NORMAL",
      "",
      5,
      "WEEK 4",
      "TREATMENT",
      "2012-12-26T08:44",
      27
    ],
    [
      "CDISCPILOT01",
      "LB",
      "CDISC001",
      91,
      "LYM",
      "Lymphocytes",
      "HEMATOLOGY",
      "1.04",
      "10^9/L",
      "0.8",
      "3",
      "1.04",
      1.04,
      "10^9/L",
      0.8,
      3,
      "NORMAL",
      "",
      5,
      "WEEK 4",
      "TREATMENT",
      "2012-12-26T08:44",
      27
    ],
    [
      "CDISCPILOT01",
      "LB",
      "CDISC001",
      92,
      "MCH",
      "Ery. Mean Corpuscular Hemoglobin",
      "HEMATOLOGY",
      "31",
      "pg",
      "26",
      "34",
      "1.92386",
      1.92386,
      "fmol",
      1.6,
      2.1,
      "NORMAL",
      "",
      5,
      "WEEK 4",
      "TREATMENT",
      "2012-12-26T08:44",
      27
    ],
    [
      "CDISCPILOT01",
      "LB",
      "CDISC001",
      93,
      "MCHC",
      "Ery. Mean Corpuscular HGB Concentration",
      "HEMATOLOGY",
      "33",
      "g/dL",
      "31",
      "38",
      "20.4798",
      20.4798,
      "mmol/L",
      19,
      24,
      "NORMAL",
      "",
      5,
      "WEEK 4",
      "TREATMENT",
      "2012-12-26T08:44",
      27
    ],
    [
      "CDISCPILOT01",
      "LB",
      "CDISC001",
      94,
      "MCV",
      "Ery. Mean Corpuscular Volume",
      "HEMATOLOGY",
      "96",
      "fL",
      "80",
      "100",
      "96",
      96,
      "fL",
      80,
      100,
      "NORMAL",
      "",
      5,
      "WEEK 4",
      "TREATMENT",
      "2012-12-26T08:44",
      27
    ],
    [
      "CDISCPILOT01",
      "LB",
      "CDISC001",
      95,
      "MONO",
      "Monocytes",
      "HEMATOLOGY",
      "0.56",
      "10^9/L",
      "0.12",
      "0.92",
      "0.56",
      0.56,
      "10^9/L",
      0.12,
      0.92,
      "NORMAL",
      "",
      5,
      "WEEK 4",
      "TREATMENT",
      "2012-12-26T08:44",
      27
    ],
    [
      "CDISCPILOT01",
      "LB",
      "CDISC001",
      96,
      "SODIUM",
      "Sodium",
      "CHEMISTRY",
      "140",
      "mEq/L",
      "135",
      "145",
      "140",
      140,
      "mmol/L",
      135,
      145,
      "NORMAL",
      "",
      5,
      "WEEK 4",
      "TREATMENT",
      "2012-12-26T08:44",
      27
    ],
    [
      "CDISCPILOT01",
      "LB",
      "CDISC001",
      97,
      "PHOS",
      "Phosphate",
      "CHEMISTRY",
      "3.1",
      "mg/dL",
      "2.2",
      "5.1",
      "1.00099",
      1.00099,
      "mmol/L",
      0.71,
      1.65,
      "NORMAL",
      "",
      5,
      "WEEK 4",
      "TREATMENT",
      "2012-12-26T08:44",
      27
    ],
    [
      "CDISCPILOT01",
      "LB",
      "CDISC001",
      98,
      "PLAT",
      "Platelets",
      "HEMATOLOGY",
      "187",
      "10^9/L",
      "130",
      "394",
      "187",
      187,
      "10^9/L",
      130,
      394,
      "NORMAL",
      "",
      5,
      "WEEK 4",
      "TREATMENT",
      "2012-12-26T08:44",
      27
    ],
    [
      "CDISCPILOT01",
      "LB",
      "CDISC001",
      99,
      "PROT",
      "Protein",
      "CHEMISTRY",
      "6.3",
      "g/dL",
      "6",
      "8",
      "63",
      63,
      "g/L",
      60,
      80,
      "NORMAL",
      "",
      5,
      "WEEK 4",
      "TREATMENT",
      "2012-12-26T08:44",
      27
    ],
    [
      "CDISCPILOT01",
      "LB",
      "CDISC001",
      100,
      "RBC",
      "Erythrocytes",
      "HEMATOLOGY",
      "4.70",
      "10^12/L",
      "4",
      "5.8",
      "4.7",
      4.7,
      "10^12/L",
      4,
      5.8,
      "NORMAL",
      "",
      5,
      "WEEK 4",
      "TREATMENT",
      "2012-12-26T08:44",
      27
    ],
    [
      "CDISCPILOT01",
      "LB",
      "CDISC001",
      101,
      "URATE",
      "Urate",
      "CHEMISTRY",
      "4.7",
      "mg/dL",
      "2.5",
      "7.5",
      "279.556",
      279.556,
      "umol/L",
      149,
      446,
      "NORMAL",
      "",
      5,
      "WEEK 4",
      "TREATMENT",
      "2012-12-26T08:44",
      27
    ],
    [
      "CDISCPILOT01",
      "LB",
      "CDISC001",
      102,
      "WBC",
      "Leukocytes",
      "HEMATOLOGY",
      "5.40",
      "10^9/L",
      "3.8",
      "10.7",
      "5.4",
      5.4,
      "10^9/L",
      3.8,
      10.7,
      "NORMAL",
      "",
      5,
      "WEEK 4",
      "TREATMENT",
      "2012-12-26T08:44",
      27
    ],
    [
      "CDISCPILOT01",
      "LB",
      "CDISC001",
      103,
      "ALB",
      "Albumin",
      "CHEMISTRY",
      "3.7",
      "g/dL",
      "3.5",
      "4.6",
      "37",
      37,
      "g/L",
      35,
      46,
      "NORMAL",
      "",
      5.01,
      "WEEK 4: UNSCHEDULED 01",
      "TREATMENT",
      "2012-12-28T09:27",
      29
    ],
    [
      "CDISCPILOT01",
      "LB",
      "CDISC001",
      104,
      "ALP",
      "Alkaline Phosphatase",
      "CHEMISTRY",
      "101",
      "U/L",
      "35",
      "115",
      "101",
      101,
      "U/L",
      35,
      115,
      "NORMAL",
      "",
      5.01,
      "WEEK 4: UNSCHEDULED 01",
      "TREATMENT",
      "2012-12-28T09:27",
      29
    ],
    [
      "CDISCPILOT01",
      "LB",
      "CDISC001",
      105,
      "ALT",
      "Alanine Aminotransferase",
      "CHEMISTRY",
      "16",
      "U/L",
      "6",
      "35",
      "16",
      16,
      "U/L",
      6,
      35,
      "NORMAL",
      "",
      5.01,
      "WEEK 4: UNSCHEDULED 01",
      "TREATMENT",
      "2012-12-28T09:27",
      29
    ],
    [
      "CDISCPILOT01",
      "LB",
      "CDISC001",
      106,
      "AST",
      "Aspartate Aminotransferase",
      "CHEMISTRY",
      "23",
      "U/L",
      "11",
      "36",
      "23",
      23,
      "U/L",
      11,
      36,
      "NORMAL",
      "",
      5.01,
      "WEEK 4: UNSCHEDULED 01",
      "TREATMENT",
      "2012-12-28T09:27",
      29
    ],
    [
      "CDISCPILOT01",
      "LB",
      "CDISC001",
      107,
      "BILI",
      "Bilirubin",
      "CHEMISTRY",
      "0.3",
      "mg/dL",
      "0.2",
      "1.2",
      "5.13",
      5.13,
      "umol/L",
      3,
      21,
      "NORMAL",
      "",
      5.01,
      "WEEK 4: UNSCHEDULED 01",
      "TREATMENT",
      "2012-12-28T09:27",
      29
    ],
    [
      "CDISCPILOT01",
      "LB",
      "CDISC001",
      108,
      "UREAN",
      "Urea Nitrogen",
      "CHEMISTRY",
      "21",
      "mg/dL",
      "4",
      "24",
      "7.497",
      7.497,
      "mmol/L",
      1.4,
      8.6,
      "NORMAL",
      "",
      5.01,
      "WEEK 4: UNSCHEDULED 01",
      "TREATMENT",
      "2012-12-28T09:27",
      29
    ],
    [
      "CDISCPILOT01",
      "LB",
      "CDISC001",
      109,
      "CA",
      "Calcium",
      "CHEMISTRY",
      "9.6",
      "mg/dL",
      "8.4",
      "10.3",
      "2.3952",
      2.3952,
      "mmol/L",
      2.1,
      2.57,
      "NORMAL",
      "",
      5.01,
      "WEEK 4: UNSCHEDULED 01",
      "TREATMENT",
      "2012-12-28T09:27",
      29
    ],
    [
      "CDISCPILOT01",
      "LB",
      "CDISC001",
      110,
      "CHOL",
      "Cholesterol",
      "CHEMISTRY",
      "235",
      "mg/dL",
      "149",
      "286",
      "6.0771",
      6.0771,
      "mmol/L",
      3.85,
      7.4,
      "NORMAL",
      "",
      5.01,
      "WEEK 4: UNSCHEDULED 01",
      "TREATMENT",
      "2012-12-28T09:27",
      29
    ],
    [
      "CDISCPILOT01",
      "LB",
      "CDISC001",
      111,
      "CK",
      "Creatine Kinase",
      "CHEMISTRY",
      "58",
      "U/L",
      "22",
      "198",
      "58",
      58,
      "U/L",
      22,
      198,
      "NORMAL",
      "",
      5.01,
      "WEEK 4: UNSCHEDULED 01",
      "TREATMENT",
      "2012-12-28T09:27",
      29
    ],
    [
      "CDISCPILOT01",
      "LB",
      "CDISC001",
      112,
      "CREAT",
      "Creatinine",
      "CHEMISTRY",
      "1.3",
      "mg/dL",
      "0.8",
      "1.6",
      "114.92",
      114.92,
      "umol/L",
      71,
      141,
      "NORMAL",
      "",
      5.01,
      "WEEK 4: UNSCHEDULED 01",
      "TREATMENT",
      "2012-12-28T09:27",
      29
    ],
    [
      "CDISCPILOT01",
      "LB",
      "CDISC001",
      113,
      "GGT",
      "Gamma Glutamyl Transferase",
      "CHEMISTRY",
      "34",
      "U/L",
      "10",
      "50",
      "34",
      34,
      "U/L",
      10,
      50,
      "NORMAL",
      "",
      5.01,
      "WEEK 4: UNSCHEDULED 01",
      "TREATMENT",
      "2012-12-28T09:27",
      29
    ],
    [
      "CDISCPILOT01",
      "LB",
      "CDISC001",
      114,
      "GLUC",
      "Glucose",
      "CHEMISTRY",
      "48",
      "mg/dL",
      "50",
      "250",
      "2.66448",
      2.66448,
      "mmol/L",
      2.8,
      13.9,
      "LOW",
      "",
      5.01,
      "WEEK 4: UNSCHEDULED 01",
      "TREATMENT",
      "2012-12-28T09:27",
      29
    ],
    [
      "CDISCPILOT01",
      "LB",
      "CDISC001",
      115,
      "PHOS",
      "Phosphate",
      "CHEMISTRY",
      "2.9",
      "mg/dL",
      "2.2",
      "5.1",
      "0.93641",
      0.93641,
      "mmol/L",
      0.71,
      1.65,
      "NORMAL",
      "",
      5.01,
      "WEEK 4: UNSCHEDULED 01",
      "TREATMENT",
      "2012-12-28T09:27",
      29
    ],
    [
      "CDISCPILOT01",
      "LB",
      "CDISC001",
      116,
      "PROT",
      "Protein",
      "CHEMISTRY",
      "6.9",
      "g/dL",
      "6",
      "8",
      "69",
      69,
      "g/L",
      60,
      80,
      "NORMAL",
      "",
      5.01,
      "WEEK 4: UNSCHEDULED 01",
      "TREATMENT",
      "2012-12-28T09:27",
      29
    ],
    [
      "CDISCPILOT01",
      "LB",
      "CDISC001",
      117,
      "URATE",
      "Urate",
      "CHEMISTRY",
      "4.4",
      "mg/dL",
      "2.5",
      "7.5",
      "261.712",
      261.712,
      "umol/L",
      149,
      446,
      "NORMAL",
      "",
      5.01,
      "WEEK 4: UNSCHEDULED 01",
      "TREATMENT",
      "2012-12-28T09:27",
      29
    ],
    [
      "CDISCPILOT01",
      "LB",
      "CDISC001",
      118,
      "ALB",
      "Albumin",
      "CHEMISTRY",
      "3.7",
      "g/dL",
      "3.5",
      "4.6",
      "37",
      37,
      "g/L",
      35,
      46,
      "NORMAL",
      "",
      7,
      "WEEK 6",
      "TREATMENT",
      "2013-01-10T15:20",
      42
    ],
    [
      "CDISCPILOT01",
      "LB",
      "CDISC001",
      119,
      "ALP",
      "Alkaline Phosphatase",
      "CHEMISTRY",
      "98",
      "U/L",
      "35",
      "115",
      "98",
      98,
      "U/L",
      35,
      115,
      "NORMAL",
      "",
      7,
      "WEEK 6",
      "TREATMENT",
      "2013-01-10T15:20",
      42
    ],
    [
      "CDISCPILOT01",
      "LB",
      "CDISC001",
      120,
      "ALT",
      "Alanine Aminotransferase",
      "CHEMISTRY",
      "18",
      "U/L",
      "6",
      "35",
      "18",
      18,
      "U/L",
      6,
      35,
      "NORMAL",
      "",
      7,
      "WEEK 6",
      "TREATMENT",
      "2013-01-10T15:20",
      42
    ],
    [
      "CDISCPILOT01",
      "LB",
      "CDISC001",
      121,
      "AST",
      "Aspartate Aminotransferase",
      "CHEMISTRY",
      "25",
      "U/L",
      "11",
      "36",
      "25",
      25,
      "U/L",
      11,
      36,
      "NORMAL",
      "",
      7,
      "WEEK 6",
      "TREATMENT",
      "2013-01-10T15:20",
      42
    ],
    [
      "CDISCPILOT01",
      "LB",
      "CDISC001",
      122,
      "BASO",
      "Basophils",
      "HEMATOLOGY",
      "0.03",
      "10^9/L",
      "0",
      "0.2",
      "0.03",
      0.03,
      "10^9/L",
      0,
      0.2,
      "NORMAL",
      "",
      7,
      "WEEK 6",
      "TREATMENT",
      "2013-01-10T15:20",
      42
    ],
    [
      "CDISCPILOT01",
      "LB",
      "CDISC001",
      123,
      "BILI",
      "Bilirubin",
      "CHEMISTRY",
      "0.4",
      "mg/dL",
      "0.2",
      "1.2",
      "6.84",
      6.84,
      "umol/L",
      3,
      21,
      "NORMAL",
      "",
      7,
      "WEEK 6",
      "TREATMENT",
      "2013-01-10T15:20",
      42
    ],
    [
      "CDISCPILOT01",
      "LB",
      "CDISC001",
      124,
      "UREAN",
      "Urea Nitrogen",
      "CHEMISTRY",
      "25",
      "mg/dL",
      "4",
      "24",
      "8.925",
      8.925,
      "mmol/L",
      1.4,
      8.6,
      "HIGH",
      "",
      7,
      "WEEK 6",
      "TREATMENT",
      "2013-01-10T15:20",
      42
    ],
    [
      "CDISCPILOT01",
      "LB",
      "CDISC001",
      125,
      "CA",
      "Calcium",
      "CHEMISTRY",
      "9.2",
      "mg/dL",
      "8.4",
      "10.3",
      "2.2954",
      2.2954,
      "mmol/L",
      2.1,
      2.57,
      "NORMAL",
      "",
      7,
      "WEEK 6",
      "TREATMENT",
      "2013-01-10T15:20",
      42
    ],
    [
      "CDISCPILOT01",
      "LB",
      "CDISC001",
      126,
      "CHOL",
      "Cholesterol",
      "CHEMISTRY",
      "242",
      "mg/dL",
      "149",
      "286",
      "6.25812",
      6.25812,
      "mmol/L",
      3.85,
      7.4,
      "NORMAL",
      "",
      7,
      "WEEK 6",
      "TREATMENT",
      "2013-01-10T15:20",
      42
    ],
    [
      "CDISCPILOT01",
      "LB",
      "CDISC001",
      127,
      "CK",
      "Creatine Kinase",
      "CHEMISTRY",
      "78",
      "U/L",
      "22",
      "198",
      "78",
      78,
      "U/L",
      22,
      198,
      "NORMAL",
      "",
      7,
      "WEEK 6",
      "TREATMENT",
      "2013-01-10T15:20",
      42
    ],
    [
      "CDISCPILOT01",
      "LB",
      "CDISC001",
      128,
      "CL",
      "Chloride",
      "CHEMISTRY",
      "108",
      "mEq/L",
      "94",
      "112",
      "108",
      108,
      "mmol/L",
      94,
      112,
      "NORMAL",
      "",
      7,
      "WEEK 6",
      "TREATMENT",
      "2013-01-10T15:20",
      42
    ],
    [
      "CDISCPILOT01",
      "LB",
      "CDISC001",
      129,
      "CREAT",
      "Creatinine",
      "CHEMISTRY",
      "1.5",
      "mg/dL",
      "0.8",
      "1.6",
      "132.6",
      132.6,
      "umol/L",
      71,
      141,
      "NORMAL",
      "",
      7,
      "WEEK 6",
      "TREATMENT",
      "2013-01-10T15:20",
      42
    ],
    [
      "CDISCPILOT01",
      "LB",
      "CDISC001",
      130,
      "EOS",
      "Eosinophils",
      "HEMATOLOGY",
      "0.16",
      "10^9/L",
      "0",
      "0.57",
      "0.16",
      0.16,
      "10^9/L",
      0,
      0.57,
      "NORMAL",
      "",
      7,
      "WEEK 6",
      "TREATMENT",
      "2013-01-10T15:20",
      42
    ],
    [
      "CDISCPILOT01",
      "LB",
      "CDISC001",
      131,
      "GGT",
      "Gamma Glutamyl Transferase",
      "CHEMISTRY",
      "37",
      "U/L",
      "10",
      "50",
      "37",
      37,
      "U/L",
      10,
      50,
      "NORMAL",
      "",
      7,
      "WEEK 6",
      "TREATMENT",
      "2013-01-10T15:20",
      42
    ],
    [
      "CDISCPILOT01",
      "LB",
      "CDISC001",
      132,
      "GLUC",
      "Glucose",
      "CHEMISTRY",
      "91",
      "mg/dL",
      "50",
      "250",
      "5.05141",
      5.05141,
      "mmol/L",
      2.8,
      13.9,
      "NORMAL",
      "",
      7,
      "WEEK 6",
      "TREATMENT",
      "2013-01-10T15:20",
      42
    ],
    [
      "CDISCPILOT01",
      "LB",
      "CDISC001",
      133,
      "HCT",
      "Hematocrit",
      "HEMATOLOGY",
      "45.0",
      "%",
      "37",
      "51",
      "0.45",
      0.45,
      "",
      0.37,
      0.51,
      "NORMAL",
      "",
      7,
      "WEEK 6",
      "TREATMENT",
      "2013-01-10T15:20",
      42
    ],
    [
      "CDISCPILOT01",
      "LB",
      "CDISC001",
      134,
      "HGB",
      "Hemoglobin",
      "HEMATOLOGY",
      "14.7",
      "g/dL",
      "12.5",
      "17",
      "9.12282",
      9.12282,
      "mmol/L",
      7.76,
      10.55,
      "NORMAL",
      "",
      7,
      "WEEK 6",
      "TREATMENT",
      "2013-01-10T15:20",
      42
    ],
    [
      "CDISCPILOT01",
      "LB",
      "CDISC001",
      135,
      "K",
      "Potassium",
      "CHEMISTRY",
      "5.3",
      "mEq/L",
      "3.4",
      "5.4",
      "5.3",
      5.3,
      "mmol/L",
      3.4,
      5.4,
      "NORMAL",
      "",
      7,
      "WEEK 6",
      "TREATMENT",
      "2013-01-10T15:20",
      42
    ],
    [
      "CDISCPILOT01",
      "LB",
      "CDISC001",
      136,
      "LYM",
      "Lymphocytes",
      "HEMATOLOGY",
      "1.13",
      "10^9/L",
      "0.8",
      "3",
      "1.13",
      1.13,
      "10^9/L",
      0.8,
      3,
      "NORMAL",
      "",
      7,
      "WEEK 6",
      "TREATMENT",
      "2013-01-10T15:20",
      42
    ],
    [
      "CDISCPILOT01",
      "LB",
      "CDISC001",
      137,
      "MCH",
      "Ery. Mean Corpuscular Hemoglobin",
      "HEMATOLOGY",
      "31",
      "pg",
      "26",
      "34",
      "1.92386",
      1.92386,
      "fmol",
      1.6,
      2.1,
      "NORMAL",
      "",
      7,
      "WEEK 6",
      "TREATMENT",
      "2013-01-10T15:20",
      42
    ],
    [
      "CDISCPILOT01",
      "LB",
      "CDISC001",
      138,
      "MCHC",
      "Ery. Mean Corpuscular HGB Concentration",
      "HEMATOLOGY",
      "33",
      "g/dL",
      "31",
      "38",
      "20.4798",
      20.4798,
      "mmol/L",
      19,
      24,
      "NORMAL",
      "",
      7,
      "WEEK 6",
      "TREATMENT",
      "2013-01-10T15:20",
      42
    ],
    [
      "CDISCPILOT01",
      "LB",
      "CDISC001",
      139,
      "MCV",
      "Ery. Mean Corpuscular Volume",
      "HEMATOLOGY",
      "95",
      "fL",
      "80",
      "100",
      "95",
      95,
      "fL",
      80,
      100,
      "NORMAL",
      "",
      7,
      "WEEK 6",
      "TREATMENT",
      "2013-01-10T15:20",
      42
    ],
    [
      "CDISCPILOT01",
      "LB",
      "CDISC001",
      140,
      "MONO",
      "Monocytes",
      "HEMATOLOGY",
      "0.38",
      "10^9/L",
      "0.12",
      "0.92",
      "0.38",
      0.38,
      "10^9/L",
      0.12,
      0.92,
      "NORMAL",
      "",
      7,
      "WEEK 6",
      "TREATMENT",
      "2013-01-10T15:20",
      42
    ],
    [
      "CDISCPILOT01",
      "LB",
      "CDISC001",
      141,
      "SODIUM",
      "Sodium",
      "CHEMISTRY",
      "144",
      "mEq/L",
      "135",
      "145",
      "144",
      144,
      "mmol/L",
      135,
      145,
      "NORMAL",
      "",
      7,
      "WEEK 6",
      "TREATMENT",
      "2013-01-10T15:20",
      42
    ],
    [
      "CDISCPILOT01",
      "LB",
      "CDISC001",
      142,
      "PHOS",
      "Phosphate",
      "CHEMISTRY",
      "3.7",
      "mg/dL",
      "2.2",
      "5.1",
      "1.19473",
      1.19473,
      "mmol/L",
      0.71,
      1.65,
      "NORMAL",
      "",
      7,
      "WEEK 6",
      "TREATMENT",
      "2013-01-10T15:20",
      42
    ],
    [
      "CDISCPILOT01",
      "LB",
      "CDISC001",
      143,
      "PLAT",
      "Platelets",
      "HEMATOLOGY",
      "181",
      "10^9/L",
      "130",
      "394",
      "181",
      181,
      "10^9/L",
      130,
      394,
      "NORMAL",
      "",
      7,
      "WEEK 6",
      "TREATMENT",
      "2013-01-10T15:20",
      42
    ],
    [
      "CDISCPILOT01",
      "LB",
      "CDISC001",
      144,
      "PROT",
      "Protein",
      "CHEMISTRY",
      "7.0",
      "g/dL",
      "6",
      "8",
      "70",
      70,
      "g/L",
      60,
      80,
      "NORMAL",
      "",
      7,
      "WEEK 6",
      "TREATMENT",
      "2013-01-10T15:20",
      42
    ],
    [
      "CDISCPILOT01",
      "LB",
      "CDISC001",
      145,
      "RBC",
      "Erythrocytes",
      "HEMATOLOGY",
      "4.70",
      "10^12/L",
      "4",
      "5.8",
      "4.7",
      4.7,
      "10^12/L",
      4,
      5.8,
      "NORMAL",
      "",
      7,
      "WEEK 6",
      "TREATMENT",
      "2013-01-10T15:20",
      42
    ],
    [
      "CDISCPILOT01",
      "LB",
      "CDISC001",
      146,
      "URATE",
      "Urate",
      "CHEMISTRY",
      "5.2",
      "mg/dL",
      "2.5",
      "7.5",
      "309.296",
      309.296,
      "umol/L",
      149,
      446,
      "NORMAL",
      "",
      7,
      "WEEK 6",
      "TREATMENT",
      "2013-01-10T15:20",
      42
    ],
    [
      "CDISCPILOT01",
      "LB",
      "CDISC001",
      147,
      "WBC",
      "Leukocytes",
      "HEMATOLOGY",
      "4.52",
      "10^9/L",
      "3.8",
      "10.7",
      "4.52",
      4.52,
      "10^9/L",
      3.8,
      10.7,
      "NORMAL",
      "",
      7,
      "WEEK 6",
      "TREATMENT",
      "2013-01-10T15:20",
      42
    ],
    [
      "CDISCPILOT01",
      "LB",
      "CDISC001",
      148,
      "ALB",
      "Albumin",
      "CHEMISTRY",
      "3.9",
      "g/dL",
      "3.5",
      "4.6",
      "39",
      39,
      "g/L",
      35,
      46,
      "NORMAL",
      "",
      8,
      "WEEK 8",
      "TREATMENT",
      "2013-01-23T12:13",
      55
    ],
    [
      "CDISCPILOT01",
      "LB",
      "CDISC001",
      149,
      "ALP",
      "Alkaline Phosphatase",
      "CHEMISTRY",
      "98",
      "U/L",
      "35",
      "115",
      "98",
      98,
      "U/L",
      35,
      115,
      "NORMAL",
      "",
      8,
      "WEEK 8",
      "TREATMENT",
      "2013-01-23T12:13",
      55
    ],
    [
      "CDISCPILOT01",
      "LB",
      "CDISC001",
      150,
      "ALT",
      "Alanine Aminotransferase",
      "CHEMISTRY",
      "16",
      "U/L",
      "6",
      "35",
      "16",
      16,
      "U/L",
      6,
      35,
      "NORMAL",
      "",
      8,
      "WEEK 8",
      "TREATMENT",
      "2013-01-23T12:13",
      55
    ],
    [
      "CDISCPILOT01",
      "LB",
      "CDISC001",
      151,
      "AST",
      "Aspartate Aminotransferase",
      "CHEMISTRY",
      "25",
      "U/L",
      "11",
      "36",
      "25",
      25,
      "U/L",
      11,
      36,
      "NORMAL",
      "",
      8,
      "WEEK 8",
      "TREATMENT",
      "2013-01-23T12:13",
      55
    ],
    [
      "CDISCPILOT01",
      "LB",
      "CDISC001",
      152,
      "BASO",
      "Basophils",
      "HEMATOLOGY",
      "0.04",
      "10^9/L",
      "0",
      "0.2",
      "0.04",
      0.04,
      "10^9/L",
      0,
      0.2,
      "NORMAL",
      "",
      8,
      "WEEK 8",
      "TREATMENT",
      "2013-01-23T12:13",
      55
    ],
    [
      "CDISCPILOT01",
      "LB",
      "CDISC001",
      153,
      "BILI",
      "Bilirubin",
      "CHEMISTRY",
      "0.5",
      "mg/dL",
      "0.2",
      "1.2",
      "8.55",
      8.55,
      "umol/L",
      3,
      21,
      "NORMAL",
      "",
      8,
      "WEEK 8",
      "TREATMENT",
      "2013-01-23T12:13",
      55
    ],
    [
      "CDISCPILOT01",
      "LB",
      "CDISC001",
      154,
      "UREAN",
      "Urea Nitrogen",
      "CHEMISTRY",
      "22",
      "mg/dL",
      "4",
      "24",
      "7.854",
      7.854,
      "mmol/L",
      1.4,
      8.6,
      "NORMAL",
      "",
      8,
      "WEEK 8",
      "TREATMENT",
      "2013-01-23T12:13",
      55
    ],
    [
      "CDISCPILOT01",
      "LB",
      "CDISC001",
      155,
      "CA",
      "Calcium",
      "CHEMISTRY",
      "8.9",
      "mg/dL",
      "8.4",
      "10.3",
      "2.22055",
      2.22055,
      "mmol/L",
      2.1,
      2.57,
      "NORMAL",
      "",
      8,
      "WEEK 8",
      "TREATMENT",
      "2013-01-23T12:13",
      55
    ],
    [
      "CDISCPILOT01",
      "LB",
      "CDISC001",
      156,
      "CHOL",
      "Cholesterol",
      "CHEMISTRY",
      "252",
      "mg/dL",
      "149",
      "286",
      "6.51672",
      6.51672,
      "mmol/L",
      3.85,
      7.4,
      "NORMAL",
      "",
      8,
      "WEEK 8",
      "TREATMENT",
      "2013-01-23T12:13",
      55
    ],
    [
      "CDISCPILOT01",
      "LB",
      "CDISC001",
      157,
      "CK",
      "Creatine Kinase",
      "CHEMISTRY",
      "94",
      "U/L",
      "22",
      "198",
      "94",
      94,
      "U/L",
      22,
      198,
      "NORMAL",
      "",
      8,
      "WEEK 8",
      "TREATMENT",
      "2013-01-23T12:13",
      55
    ],
    [
      "CDISCPILOT01",
      "LB",
      "CDISC001",
      158,
      "CL",
      "Chloride",
      "CHEMISTRY",
      "104",
      "mEq/L",
      "94",
      "112",
      "104",
      104,
      "mmol/L",
      94,
      112,
      "NORMAL",
      "",
      8,
      "WEEK 8",
      "TREATMENT",
      "2013-01-23T12:13",
      55
    ],
    [
      "CDISCPILOT01",
      "LB",
      "CDISC001",
      159,
      "COLOR",
      "Color",
      "URINALYSIS",
      "NORMAL",
      "",
      "",
      "",
      "NORMAL",
      null,
      "",
      null,
      null,
      "NORMAL",
      "",
      8,
      "WEEK 8",
      "TREATMENT",
      "2013-01-23T12:13",
      55
    ],
    [
      "CDISCPILOT01",
      "LB",
      "CDISC001",
      160,
      "CREAT",
      "Creatinine",
      "CHEMISTRY",
      "1.3",
      "mg/dL",
      "0.8",
      "1.6",
      "114.92",
      114.92,
      "umol/L",
      71,
      141,
      "NORMAL",
      "",
      8,
      "WEEK 8",
      "TREATMENT",
      "2013-01-23T12:13",
      55
    ],
    [
      "CDISCPILOT01",
      "LB",
      "CDISC001",
      161,
      "EOS",
      "Eosinophils",
      "HEMATOLOGY",
      "0.35",
      "10^9/L",
      "0",
      "0.57",
      "0.35",
      0.35,
      "10^9/L",
      0,
      0.57,
      "NORMAL",
      "",
      8,
      "WEEK 8",
      "TREATMENT",
      "2013-01-23T12:13",
      55
    ],
    [
      "CDISCPILOT01",
      "LB",
      "CDISC001",
      162,
      "GGT",
      "Gamma Glutamyl Transferase",
      "CHEMISTRY",
      "34",
      "U/L",
      "10",
      "50",
      "34",
      34,
      "U/L",
      10,
      50,
      "NORMAL",
      "",
      8,
      "WEEK 8",
      "TREATMENT",
      "2013-01-23T12:13",
      55
    ],
    [
      "CDISCPILOT01",
      "LB",
      "CDISC001",
      163,
      "GLUC",
      "Glucose",
      "CHEMISTRY",
      "79",
      "mg/dL",
      "50",
      "250",
      "4.38529",
      4.38529,
      "mmol/L",
      2.8,
      13.9,
      "NORMAL",
      "",
      8,
      "WEEK 8",
      "TREATMENT",
      "2013-01-23T12:13",
      55
    ],
    [
      "CDISCPILOT01",
      "LB",
      "CDISC001",
      164,
      "HCT",
      "Hematocrit",
      "HEMATOLOGY",
      "45.0",
      "%",
      "37",
      "51",
      "0.45",
      0.45,
      "",
      0.37,
      0.51,
      "NORMAL",
      "",
      8,
      "WEEK 8",
      "TREATMENT",
      "2013-01-23T12:13",
      55
    ],
    [
      "CDISCPILOT01",
      "LB",
      "CDISC001",
      165,
      "HGB",
      "Hemoglobin",
      "HEMATOLOGY",
      "15.2",
      "g/dL",
      "12.5",
      "17",
      "9.43312",
      9.43312,
      "mmol/L",
      7.76,
      10.55,
      "NORMAL",
      "",
      8,
      "WEEK 8",
      "TREATMENT",
      "2013-01-23T12:13",
      55
    ],
    [
      "CDISCPILOT01",
      "LB",
      "CDISC001",
      166,
      "K",
      "Potassium",
      "CHEMISTRY",
      "4.7",
      "mEq/L",
      "3.4",
      "5.4",
      "4.7",
      4.7,
      "mmol/L",
      3.4,
      5.4,
      "NORMAL",
      "",
      8,
      "WEEK 8",
      "TREATMENT",
      "2013-01-23T12:13",
      55
    ],
    [
      "CDISCPILOT01",
      "LB",
      "CDISC001",
      167,
      "KETONES",
      "Ketones",
      "URINALYSIS",
      "0",
      "",
      "",
      "",
      "0",
      0,
      "",
      null,
      null,
      "NORMAL",
      "",
      8,
      "WEEK 8",
      "TREATMENT",
      "2013-01-23T12:13",
      55
    ],
    [
      "CDISCPILOT01",
      "LB",
      "CDISC001",
      168,
      "LYM",
      "Lymphocytes",
      "HEMATOLOGY",
      "1.13",
      "10^9/L",
      "0.8",
      "3",
      "1.13",
      1.13,
      "10^9/L",
      0.8,
      3,
      "NORMAL",
      "",
      8,
      "WEEK 8",
      "TREATMENT",
      "2013-01-23T12:13",
      55
    ],
    [
      "CDISCPILOT01",
      "LB",
      "CDISC001",
      169,
      "MCH",
      "Ery. Mean Corpuscular Hemoglobin",
      "HEMATOLOGY",
      "32",
      "pg",
      "26",
      "34",
      "1.98592",
      1.98592,
      "fmol",
      1.6,
      2.1,
      "NORMAL",
      "",
      8,
      "WEEK 8",
      "TREATMENT",
      "2013-01-23T12:13",
      55
    ],
    [
      "CDISCPILOT01",
      "LB",
      "CDISC001",
      170,
      "MCHC",
      "Ery. Mean Corpuscular HGB Concentration",
      "HEMATOLOGY",
      "34",
      "g/dL",
      "31",
      "38",
      "21.1004",
      21.1004,
      "mmol/L",
      19,
      24,
      "NORMAL",
      "",
      8,
      "WEEK 8",
      "TREATMENT",
      "2013-01-23T12:13",
      55
    ],
    [
      "CDISCPILOT01",
      "LB",
      "CDISC001",
      171,
      "MCV",
      "Ery. Mean Corpuscular Volume",
      "HEMATOLOGY",
      "94",
      "fL",
      "80",
      "100",
      "94",
      94,
      "fL",
      80,
      100,
      "NORMAL",
      "",
      8,
      "WEEK 8",
      "TREATMENT",
      "2013-01-23T12:13",
      55
    ],
    [
      "CDISCPILOT01",
      "LB",
      "CDISC001",
      172,
      "MONO",
      "Monocytes",
      "HEMATOLOGY",
      "0.41",
      "10^9/L",
      "0.12",
      "0.92",
      "0.41",
      0.41,
      "10^9/L",
      0.12,
      0.92,
      "NORMAL",
      "",
      8,
      "WEEK 8",
      "TREATMENT",
      "2013-01-23T12:13",
      55
    ],
    [
      "CDISCPILOT01",
      "LB",
      "CDISC001",
      173,
      "SODIUM",
      "Sodium",
      "CHEMISTRY",
      "141",
      "mEq/L",
      "135",
      "145",
      "141",
      141,
      "mmol/L",
      135,
      145,
      "NORMAL",
      "",
      8,
      "WEEK 8",
      "TREATMENT",
      "2013-01-23T12:13",
      55
    ],
    [
      "CDISCPILOT01",
      "LB",
      "CDISC001",
      174,
      "PH",
      "pH",
      "URINALYSIS",
      "5",
      "",
      "5",
      "8",
      "5",
      5,
      "",
      5,
      8,
      "NORMAL",
      "",
      8,
      "WEEK 8",
      "TREATMENT",
      "2013-01-23T12:13",
      55
    ],
    [
      "CDISCPILOT01",
      "LB",
      "CDISC001",
      175,
      "PHOS",
      "Phosphate",
      "CHEMISTRY",
      "3.4",
      "mg/dL",
      "2.2",
      "5.1",
      "1.09786",
      1.09786,
      "mmol/L",
      0.71,
      1.65,
      "NORMAL",
      "",
      8,
      "WEEK 8",
      "TREATMENT",
      "2013-01-23T12:13",
      55
    ],
    [
      "CDISCPILOT01",
      "LB",
      "CDISC001",
      176,
      "PLAT",
      "Platelets",
      "HEMATOLOGY",
      "174",
      "10^9/L",
      "130",
      "394",
      "174",
      174,
      "10^9/L",
      130,
      394,
      "NORMAL",
      "",
      8,
      "WEEK 8",
      "TREATMENT",
      "2013-01-23T12:13",
      55
    ],
    [
      "CDISCPILOT01",
      "LB",
      "CDISC001",
      177,
      "PROT",
      "Protein",
      "CHEMISTRY",
      "7.1",
      "g/dL",
      "6",
      "8",
      "71",
      71,
      "g/L",
      60,
      80,
      "NORMAL",
      "",
      8,
      "WEEK 8",
      "TREATMENT",
      "2013-01-23T12:13",
      55
    ],
    [
      "CDISCPILOT01",
      "LB",
      "CDISC001",
      178,
      "RBC",
      "Erythrocytes",
      "HEMATOLOGY",
      "4.80",
      "10^12/L",
      "4",
      "5.8",
      "4.8",
      4.8,
      "10^12/L",
      4,
      5.8,
      "NORMAL",
      "",
      8,
      "WEEK 8",
      "TREATMENT",
      "2013-01-23T12:13",
      55
    ],
    [
      "CDISCPILOT01",
      "LB",
      "CDISC001",
      179,
      "SPGRAV",
      "Specific Gravity",
      "URINALYSIS",
      "1.023",
      "",
      "1.006",
      "1.03",
      "1.023",
      1.023,
      "",
      1.006,
      1.03,
      "NORMAL",
      "",
      8,
      "WEEK 8",
      "TREATMENT",
      "2013-01-23T12:13",
      55
    ],
    [
      "CDISCPILOT01",
      "LB",
      "CDISC001",
      180,
      "URATE",
      "Urate",
      "CHEMISTRY",
      "4.5",
      "mg/dL",
      "2.5",
      "7.5",
      "267.66",
      267.66,
      "umol/L",
      149,
      446,
      "NORMAL",
      "",
      8,
      "WEEK 8",
      "TREATMENT",
      "2013-01-23T12:13",
      55
    ],
    [
      "CDISCPILOT01",
      "LB",
      "CDISC001",
      181,
      "UROBIL",
      "Urobilinogen",
      "URINALYSIS",
      "0",
      "",
      "",
      "",
      "0",
      0,
      "",
      null,
      null,
      "NORMAL",
      "",
      8,
      "WEEK 8",
      "TREATMENT",
      "2013-01-23T12:13",
      55
    ],
    [
      "CDISCPILOT01",
      "LB",
      "CDISC001",
      182,
      "WBC",
      "Leukocytes",
      "HEMATOLOGY",
      "4.98",
      "10^9/L",
      "3.8",
      "10.7",
      "4.98",
      4.98,
      "10^9/L",
      3.8,
      10.7,
      "NORMAL",
      "",
      8,
      "WEEK 8",
      "TREATMENT",
      "2013-01-23T12:13",
      55
    ],
    [
      "CDISCPILOT01",
      "LB",
      "CDISC002",
      1,
      "ALB",
      "Albumin",
      "CHEMISTRY",
      "4.2",
      "g/dL",
      "3.5",
      "4.6",
      "42",
      42,
      "g/L",
      35,
      46,
      "NORMAL",
      "Y",
      1,
      "SCREENING 1",
      "SCREENING",
      "2012-10-30T14:26",
      -16
    ],
    [
      "CDISCPILOT01",
      "LB",
      "CDISC002",
      2,
      "ALP",
      "Alkaline Phosphatase",
      "CHEMISTRY",
      "106",
      "U/L",
      "35",
      "115",
      "106",
      106,
      "U/L",
      35,
      115,
      "NORMAL",
      "Y",
      1,
      "SCREENING 1",
      "SCREENING",
      "2012-10-30T14:26",
      -16
    ],
    [
      "CDISCPILOT01",
      "LB",
      "CDISC002",
      3,
      "ALT",
      "Alanine Aminotransferase",
      "CHEMISTRY",
      "19",
      "U/L",
      "6",
      "32",
      "19",
      19,
      "U/L",
      6,
      32,
      "NORMAL",
      "Y",
      1,
      "SCREENING 1",
      "SCREENING",
      "2012-10-30T14:26",
      -16
    ],
    [
      "CDISCPILOT01",
      "LB",
      "CDISC002",
      4,
      "AST",
      "Aspartate Aminotransferase",
      "CHEMISTRY",
      "20",
      "U/L",
      "9",
      "34",
      "20",
      20,
      "U/L",
      9,
      34,
      "NORMAL",
      "Y",
      1,
      "SCREENING 1",
      "SCREENING",
      "2012-10-30T14:26",
      -16
    ],
    [
      "CDISCPILOT01",
      "LB",
      "CDISC002",
      5,
      "BASO",
      "Basophils",
      "HEMATOLOGY",
      "0.10",
      "10^9/L",
      "0",
      "0.2",
      "0.1",
      0.1,
      "10^9/L",
      0,
      0.2,
      "NORMAL",
      "Y",
      1,
      "SCREENING 1",
      "SCREENING",
      "2012-10-30T14:26",
      -16
    ],
    [
      "CDISCPILOT01",
      "LB",
      "CDISC002",
      6,
      "BILI",
      "Bilirubin",
      "CHEMISTRY",
      "1.1",
      "mg/dL",
      "0.2",
      "1.2",
      "18.81",
      18.81,
      "umol/L",
      3,
      21,
      "NORMAL",
      "Y",
      1,
      "SCREENING 1",
      "SCREENING",
      "2012-10-30T14:26",
      -16
    ],
    [
      "CDISCPILOT01",
      "LB",
      "CDISC002",
      7,
      "UREAN",
      "Urea Nitrogen",
      "CHEMISTRY",
      "18",
      "mg/dL",
      "4",
      "24",
      "6.426",
      6.426,
      "mmol/L",
      1.4,
      8.6,
      "NORMAL",
      "Y",
      1,
      "SCREENING 1",
      "SCREENING",
      "2012-10-30T14:26",
      -16
    ],
    [
      "CDISCPILOT01",
      "LB",
      "CDISC002",
      8,
      "CA",
      "Calcium",
      "CHEMISTRY",
      "9.3",
      "mg/dL",
      "8.4",
      "10.3",
      "2.32035",
      2.32035,
      "mmol/L",
      2.1,
      2.57,
      "NORMAL",
      "Y",
      1,
      "SCREENING 1",
      "SCREENING",
      "2012-10-30T14:26",
      -16
    ],
    [
      "CDISCPILOT01",
      "LB",
      "CDISC002",
      9,
      "CHOL",
      "Cholesterol",
      "CHEMISTRY",
      "191",
      "mg/dL",
      "156",
      "300",
      "4.93926",
      4.93926,
      "mmol/L",
      4.03,
      7.76,
      "NORMAL",
      "Y",
      1,
      "SCREENING 1",
      "SCREENING",
      "2012-10-30T14:26",
      -16
    ],
    [
      "CDISCPILOT01",
      "LB",
      "CDISC002",
      10,
      "CK",
      "Creatine Kinase",
      "CHEMISTRY",
      "91",
      "U/L",
      "21",
      "169",
      "91",
      91,
      "U/L",
      21,
      169,
      "NORMAL",
      "Y",
      1,
      "SCREENING 1",
      "SCREENING",
      "2012-10-30T14:26",
      -16
    ],
    [
      "CDISCPILOT01",
      "LB",
      "CDISC002",
      11,
      "CL",
      "Chloride",
      "CHEMISTRY",
      "100",
      "mEq/L",
      "94",
      "112",
      "100",
      100,
      "mmol/L",
      94,
      112,
      "NORMAL",
      "Y",
      1,
      "SCREENING 1",
      "SCREENING",
      "2012-10-30T14:26",
      -16
    ],
    [
      "CDISCPILOT01",
      "LB",
      "CDISC002",
      12,
      "COLOR",
      "Color",
      "URINALYSIS",
      "NORMAL",
      "",
      "",
      "",
      "NORMAL",
      null,
      "",
      null,
      null,
      "NORMAL",
      "Y",
      1,
      "SCREENING 1",
      "SCREENING",
      "2012-10-30T14:26",
      -16
    ],
    [
      "CDISCPILOT01",
      "LB",
      "CDISC002",
      13,
      "CREAT",
      "Creatinine",
      "CHEMISTRY",
      "1.1",
      "mg/dL",
      "0.7",
      "1.4",
      "97.24",
      97.24,
      "umol/L",
      62,
      124,
      "NORMAL",
      "Y",
      1,
      "SCREENING 1",
      "SCREENING",
      "2012-10-30T14:26",
      -16
    ],
    [
      "CDISCPILOT01",
      "LB",
      "CDISC002",
      14,
      "EOS",
      "Eosinophils",
      "HEMATOLOGY",
      "0.05",
      "10^9/L",
      "0",
      "0.57",
      "0.05",
      0.05,
      "10^9/L",
      0,
      0.57,
      "NORMAL",
      "Y",
      1,
      "SCREENING 1",
      "SCREENING",
      "2012-10-30T14:26",
      -16
    ],
    [
      "CDISCPILOT01",
      "LB",
      "CDISC002",
      15,
      "GGT",
      "Gamma Glutamyl Transferase",
      "CHEMISTRY",
      "22",
      "U/L",
      "5",
      "50",
      "22",
      22,
      "U/L",
      5,
      50,
      "NORMAL",
      "Y",
      1,
      "SCREENING 1",
      "SCREENING",
      "2012-10-30T14:26",
      -16
    ],
    [
      "CDISCPILOT01",
      "LB",
      "CDISC002",
      16,
      "GLUC",
      "Glucose",
      "CHEMISTRY",
      "91",
      "mg/dL",
      "50",
      "250",
      "5.05141",
      5.05141,
      "mmol/L",
      2.8,
      13.9,
      "NORMAL",
      "Y",
      1,
      "SCREENING 1",
      "SCREENING",
      "2012-10-30T14:26",
      -16
    ],
    [
      "CDISCPILOT01",
      "LB",
      "CDISC002",
      17,
      "HCT",
      "Hematocrit",
      "HEMATOLOGY",
      "47.0",
      "%",
      "34",
      "48",
      "0.47",
      0.47,
      "",
      0.34,
      0.48,
      "NORMAL",
      "Y",
      1,
      "SCREENING 1",
      "SCREENING",
      "2012-10-30T14:26",
      -16
    ],
    [
      "CDISCPILOT01",
      "LB",
      "CDISC002",
      18,
      "HGB",
      "Hemoglobin",
      "HEMATOLOGY",
      "15.2",
      "g/dL",
      "11.5",
      "15.8",
      "9.43312",
      9.43312,
      "mmol/L",
      7.14,
      9.81,
      "NORMAL",
      "Y",
      1,
      "SCREENING 1",
      "SCREENING",
      "2012-10-30T14:26",
      -16
    ],
    [
      "CDISCPILOT01",
      "LB",
      "CDISC002",
      19,
      "K",
      "Potassium",
      "CHEMISTRY",
      "3.9",
      "mEq/L",
      "3.4",
      "5.4",
      "3.9",
      3.9,
      "mmol/L",
      3.4,
      5.4,
      "NORMAL",
      "Y",
      1,
      "SCREENING 1",
      "SCREENING",
      "2012-10-30T14:26",
      -16
    ],
    [
      "CDISCPILOT01",
      "LB",
      "CDISC002",
      20,
      "KETONES",
      "Ketones",
      "URINALYSIS",
      "1",
      "",
      "",
      "",
      "1",
      1,
      "",
      null,
      null,
      "ABNORMAL",
      "Y",
      1,
      "SCREENING 1",
      "SCREENING",
      "2012-10-30T14:26",
      -16
    ],
    [
      "CDISCPILOT01",
      "LB",
      "CDISC002",
      21,
      "LYM",
      "Lymphocytes",
      "HEMATOLOGY",
      "1.20",
      "10^9/L",
      "0.8",
      "3",
      "1.2",
      1.2,
      "10^9/L",
      0.8,
      3,
      "NORMAL",
      "Y",
      1,
      "SCREENING 1",
      "SCREENING",
      "2012-10-30T14:26",
      -16
    ],
    [
      "CDISCPILOT01",
      "LB",
      "CDISC002",
      22,
      "MCH",
      "Ery. Mean Corpuscular Hemoglobin",
      "HEMATOLOGY",
      "30",
      "pg",
      "26",
      "34",
      "1.8618",
      1.8618,
      "fmol",
      1.6,
      2.1,
      "NORMAL",
      "Y",
      1,
      "SCREENING 1",
      "SCREENING",
      "2012-10-30T14:26",
      -16
    ],
    [
      "CDISCPILOT01",
      "LB",
      "CDISC002",
      23,
      "MCHC",
      "Ery. Mean Corpuscular HGB Concentration",
      "HEMATOLOGY",
      "32",
      "g/dL",
      "31",
      "38",
      "19.8592",
      19.8592,
      "mmol/L",
      19,
      24,
      "NORMAL",
      "Y",
      1,
      "SCREENING 1",
      "SCREENING",
      "2012-10-30T14:26",
      -16
    ],
    [
      "CDISCPILOT01",
      "LB",
      "CDISC002",
      24,
      "MCV",
      "Ery. Mean Corpuscular Volume",
      "HEMATOLOGY",
      "93",
      "fL",
      "80",
      "100",
      "93",
      93,
      "fL",
      80,
      100,
      "NORMAL",
      "Y",
      1,
      "SCREENING 1",
      "SCREENING",
      "2012-10-30T14:26",
      -16
    ],
    [
      "CDISCPILOT01",
      "LB",
      "CDISC002",
      25,
      "MONO",
      "Monocytes",
      "HEMATOLOGY",
      "0.64",
      "10^9/L",
      "0.12",
      "0.92",
      "0.64",
      0.64,
      "10^9/L",
      0.12,
      0.92,
      "NORMAL",
      "Y",
      1,
      "SCREENING 1",
      "SCREENING",
      "2012-10-30T14:26",
      -16
    ],
    [
      "CDISCPILOT01",
      "LB",
      "CDISC002",
      26,
      "SODIUM",
      "Sodium",
      "CHEMISTRY",
      "133",
      "mEq/L",
      "135",
      "145",
      "133",
      133,
      "mmol/L",
      135,
      145,
      "LOW",
      "Y",
      1,
      "SCREENING 1",
      "SCREENING",
      "2012-10-30T14:26",
      -16
    ],
    [
      "CDISCPILOT01",
      "LB",
      "CDISC002",
      27,
      "PH",
      "pH",
      "URINALYSIS",
      "5",
      "",
      "5",
      "8",
      "5",
      5,
      "",
      5,
      8,
      "NORMAL",
      "Y",
      1,
      "SCREENING 1",
      "SCREENING",
      "2012-10-30T14:26",
      -16
    ],
    [
      "CDISCPILOT01",
      "LB",
      "CDISC002",
      28,
      "PHOS",
      "Phosphate",
      "CHEMISTRY",
      "3.7",
      "mg/dL",
      "2.2",
      "5.1",
      "1.19473",
      1.19473,
      "mmol/L",
      0.71,
      1.65,
      "NORMAL",
      "Y",
      1,
      "SCREENING 1",
      "SCREENING",
      "2012-10-30T14:26",
      -16
    ],
    [
      "CDISCPILOT01",
      "LB",
      "CDISC002",
      29,
      "PLAT",
      "Platelets",
      "HEMATOLOGY",
      "347",
      "10^9/L",
      "130",
      "394",
      "347",
      347,
      "10^9/L",
      130,
      394,
      "NORMAL",
      "Y",
      1,
      "SCREENING 1",
      "SCREENING",
      "2012-10-30T14:26",
      -16
    ],
    [
      "CDISCPILOT01",
      "LB",
      "CDISC002",
      30,
      "PROT",
      "Protein",
      "CHEMISTRY",
      "7.6",
      "g/dL",
      "6",
      "8",
      "76",
      76,
      "g/L",
      60,
      80,
      "NORMAL",
      "Y",
      1,
      "SCREENING 1",
      "SCREENING",
      "2012-10-30T14:26",
      -16
    ],
    [
      "CDISCPILOT01",
      "LB",
      "CDISC002",
      31,
      "RBC",
      "Erythrocytes",
      "HEMATOLOGY",
      "5.10",
      "10^12/L",
      "3.9",
      "5.5",
      "5.1",
      5.1,
      "10^12/L",
      3.9,
      5.5,
      "NORMAL",
      "Y",
      1,
      "SCREENING 1",
      "SCREENING",
      "2012-10-30T14:26",
      -16
    ],
    [
      "CDISCPILOT01",
      "LB",
      "CDISC002",
      32,
      "SPGRAV",
      "Specific Gravity",
      "URINALYSIS",
      "1.021",
      "",
      "1.006",
      "1.03",
      "1.021",
      1.021,
      "",
      1.006,
      1.03,
      "NORMAL",
      "Y",
      1,
      "SCREENING 1",
      "SCREENING",
      "2012-10-30T14:26",
      -16
    ],
    [
      "CDISCPILOT01",
      "LB",
      "CDISC002",
      33,
      "TSH",
      "Thyrotropin",
      "OTHER",
      "1.75",
      "mIU/L",
      ".32",
      "5",
      "1.75",
      1.75,
      "mU/L",
      0.32,
      5,
      "NORMAL",
      "Y",
      1,
      "SCREENING 1",
      "SCREENING",
      "2012-10-30T14:26",
      -16
    ],
    [
      "CDISCPILOT01",
      "LB",
      "CDISC002",
      34,
      "URATE",
      "Urate",
      "CHEMISTRY",
      "4.6",
      "mg/dL",
      "2.5",
      "7.5",
      "273.608",
      273.608,
      "umol/L",
      149,
      446,
      "NORMAL",
      "Y",
      1,
      "SCREENING 1",
      "SCREENING",
      "2012-10-30T14:26",
      -16
    ],
    [
      "CDISCPILOT01",
      "LB",
      "CDISC002",
      35,
      "UROBIL",
      "Urobilinogen",
      "URINALYSIS",
      "0",
      "",
      "",
      "",
      "0",
      0,
      "",
      null,
      null,
      "NORMAL",
      "Y",
      1,
      "SCREENING 1",
      "SCREENING",
      "2012-10-30T14:26",
      -16
    ],
    [
      "CDISCPILOT01",
      "LB",
      "CDISC002",
      36,
      "VITB12",
      "Vitamin B12",
      "OTHER",
      "427",
      "ng/L",
      "200",
      "900",
      "315.0406",
      315.0406,
      "pmol/L",
      148,
      664,
      "NORMAL",
      "Y",
      1,
      "SCREENING 1",
      "SCREENING",
      "2012-10-30T14:26",
      -16
    ],
    [
      "CDISCPILOT01",
      "LB",
      "CDISC002",
      37,
      "WBC",
      "Leukocytes",
      "HEMATOLOGY",
      "7.18",
      "10^9/L",
      "3.8",
      "10.7",
      "7.18",
      7.18,
      "10^9/L",
      3.8,
      10.7,
      "NORMAL",
      "Y",
      1,
      "SCREENING 1",
      "SCREENING",
      "2012-10-30T14:26",
      -16
    ],
    [
      "CDISCPILOT01",
      "LB",
      "CDISC002",
      38,
      "ALB",
      "Albumin",
      "CHEMISTRY",
      "3.4",
      "g/dL",
      "3.5",
      "4.6",
      "34",
      34,
      "g/L",
      35,
      46,
      "LOW",
      "",
      4,
      "WEEK 2",
      "TREATMENT",
      "2012-11-28T10:00",
      14
    ],
    [
      "CDISCPILOT01",
      "LB",
      "CDISC002",
      39,
      "ALP",
      "Alkaline Phosphatase",
      "CHEMISTRY",
      "103",
      "U/L",
      "35",
      "115",
      "103",
      103,
      "U/L",
      35,
      115,
      "NORMAL",
      "",
      4,
      "WEEK 2",
      "TREATMENT",
      "2012-11-28T10:00",
      14
    ],
    [
      "CDISCPILOT01",
      "LB",
      "CDISC002",
      40,
      "ALT",
      "Alanine Aminotransferase",
      "CHEMISTRY",
      "19",
      "U/L",
      "6",
      "32",
      "19",
      19,
      "U/L",
      6,
      32,
      "NORMAL",
      "",
      4,
      "WEEK 2",
      "TREATMENT",
      "2012-11-28T10:00",
      14
    ],
    [
      "CDISCPILOT01",
      "LB",
      "CDISC002",
      41,
      "AST",
      "Aspartate Aminotransferase",
      "CHEMISTRY",
      "10",
      "U/L",
      "9",
      "34",
      "10",
      10,
      "U/L",
      9,
      34,
      "NORMAL",
      "",
      4,
      "WEEK 2",
      "TREATMENT",
      "2012-11-28T10:00",
      14
    ],
    [
      "CDISCPILOT01",
      "LB",
      "CDISC002",
      42,
      "BASO",
      "Basophils",
      "HEMATOLOGY",
      "0.03",
      "10^9/L",
      "0",
      "0.2",
      "0.03",
      0.03,
      "10^9/L",
      0,
      0.2,
      "NORMAL",
      "",
      4,
      "WEEK 2",
      "TREATMENT",
      "2012-11-28T10:00",
      14
    ],
    [
      "CDISCPILOT01",
      "LB",
      "CDISC002",
      43,
      "BILI",
      "Bilirubin",
      "CHEMISTRY",
      "1.5",
      "mg/dL",
      "0.2",
      "1.2",
      "25.65",
      25.65,
      "umol/L",
      3,
      21,
      "HIGH",
      "",
      4,
      "WEEK 2",
      "TREATMENT",
      "2012-11-28T10:00",
      14
    ],
    [
      "CDISCPILOT01",
      "LB",
      "CDISC002",
      44,
      "UREAN",
      "Urea Nitrogen",
      "CHEMISTRY",
      "27",
      "mg/dL",
      "4",
      "24",
      "9.639",
      9.639,
      "mmol/L",
      1.4,
      8.6,
      "HIGH",
      "",
      4,
      "WEEK 2",
      "TREATMENT",
      "2012-11-28T10:00",
      14
    ],
    [
      "CDISCPILOT01",
      "LB",
      "CDISC002",
      45,
      "CA",
      "Calcium",
      "CHEMISTRY",
      "8.6",
      "mg/dL",
      "8.4",
      "10.3",
      "2.1457",
      2.1457,
      "mmol/L",
      2.1,
      2.57,
      "NORMAL",
      "",
      4,
      "WEEK 2",
      "TREATMENT",
      "2012-11-28T10:00",
      14
    ],
    [
      "CDISCPILOT01",
      "LB",
      "CDISC002",
      46,
      "CHOL",
      "Cholesterol",
      "CHEMISTRY",
      "167",
      "mg/dL",
      "156",
      "300",
      "4.31862",
      4.31862,
      "mmol/L",
      4.03,
      7.76,
      "NORMAL",
      "",
      4,
      "WEEK 2",
      "TREATMENT",
      "2012-11-28T10:00",
      14
    ],
    [
      "CDISCPILOT01",
      "LB",
      "CDISC002",
      47,
      "CK",
      "Creatine Kinase",
      "CHEMISTRY",
      "114",
      "U/L",
      "21",
      "169",
      "114",
      114,
      "U/L",
      21,
      169,
      "NORMAL",
      "",
      4,
      "WEEK 2",
      "TREATMENT",
      "2012-11-28T10:00",
      14
    ],
    [
      "CDISCPILOT01",
      "LB",
      "CDISC002",
      48,
      "CL",
      "Chloride",
      "CHEMISTRY",
      "97",
      "mEq/L",
      "94",
      "112",
      "97",
      97,
      "mmol/L",
      94,
      112,
      "NORMAL",
      "",
      4,
      "WEEK 2",
      "TREATMENT",
      "2012-11-28T10:00",
      14
    ],
    [
      "CDISCPILOT01",
      "LB",
      "CDISC002",
      49,
      "COLOR",
      "Color",
      "URINALYSIS",
      "NORMAL",
      "",
      "",
      "",
      "NORMAL",
      null,
      "",
      null,
      null,
      "NORMAL",
      "",
      4,
      "WEEK 2",
      "TREATMENT",
      "2012-11-28T10:00",
      14
    ],
    [
      "CDISCPILOT01",
      "LB",
      "CDISC002",
      50,
      "CREAT",
      "Creatinine",
      "CHEMISTRY",
      "1.2",
      "mg/dL",
      "0.7",
      "1.4",
      "106.08",
      106.08,
      "umol/L",
      62,
      124,
      "NORMAL",
      "",
      4,
      "WEEK 2",
      "TREATMENT",
      "2012-11-28T10:00",
      14
    ],
    [
      "CDISCPILOT01",
      "LB",
      "CDISC002",
      51,
      "EOS",
      "Eosinophils",
      "HEMATOLOGY",
      "0.06",
      "10^9/L",
      "0",
      "0.57",
      "0.06",
      0.06,
      "10^9/L",
      0,
      0.57,
      "NORMAL",
      "",
      4,
      "WEEK 2",
      "TREATMENT",
      "2012-11-28T10:00",
      14
    ],
    [
      "CDISCPILOT01",
      "LB",
      "CDISC002",
      52,
      "GGT",
      "Gamma Glutamyl Transferase",
      "CHEMISTRY",
      "25",
      "U/L",
      "5",
      "50",
      "25",
      25,
      "U/L",
      5,
      50,
      "NORMAL",
      "",
      4,
      "WEEK 2",
      "TREATMENT",
      "2012-11-28T10:00",
      14
    ],
    [
      "CDISCPILOT01",
      "LB",
      "CDISC002",
      53,
      "GLUC",
      "Glucose",
      "CHEMISTRY",
      "72",
      "mg/dL",
      "50",
      "250",
      "3.99672",
      3.99672,
      "mmol/L",
      2.8,
      13.9,
      "NORMAL",
      "",
      4,
      "WEEK 2",
      "TREATMENT",
      "2012-11-28T10:00",
      14
    ],
    [
      "CDISCPILOT01",
      "LB",
      "CDISC002",
      54,
      "HCT",
      "Hematocrit",
      "HEMATOLOGY",
      "42.0",
      "%",
      "34",
      "48",
      "0.42",
      0.42,
      "",
      0.34,
      0.48,
      "NORMAL",
      "",
      4,
      "WEEK 2",
      "TREATMENT",
      "2012-11-28T10:00",
      14
    ],
    [
      "CDISCPILOT01",
      "LB",
      "CDISC002",
      55,
      "HGB",
      "Hemoglobin",
      "HEMATOLOGY",
      "13.8",
      "g/dL",
      "11.5",
      "15.8",
      "8.56428",
      8.56428,
      "mmol/L",
      7.14,
      9.81,
      "NORMAL",
      "",
      4,
      "WEEK 2",
      "TREATMENT",
      "2012-11-28T10:00",
      14
    ],
    [
      "CDISCPILOT01",
      "LB",
      "CDISC002",
      56,
      "K",
      "Potassium",
      "CHEMISTRY",
      "3.6",
      "mEq/L",
      "3.4",
      "5.4",
      "3.6",
      3.6,
      "mmol/L",
      3.4,
      5.4,
      "NORMAL",
      "",
      4,
      "WEEK 2",
      "TREATMENT",
      "2012-11-28T10:00",
      14
    ],
    [
      "CDISCPILOT01",
      "LB",
      "CDISC002",
      57,
      "KETONES",
      "Ketones",
      "URINALYSIS",
      "0",
      "",
      "",
      "",
      "0",
      0,
      "",
      null,
      null,
      "NORMAL",
      "",
      4,
      "WEEK 2",
      "TREATMENT",
      "2012-11-28T10:00",
      14
    ],
    [
      "CDISCPILOT01",
      "LB",
      "CDISC002",
      58,
      "LYM",
      "Lymphocytes",
      "HEMATOLOGY",
      "1.17",
      "10^9/L",
      "0.8",
      "3",
      "1.17",
      1.17,
      "10^9/L",
      0.8,
      3,
      "NORMAL",
      "",
      4,
      "WEEK 2",
      "TREATMENT",
      "2012-11-28T10:00",
      14
    ],
    [
      "CDISCPILOT01",
      "LB",
      "CDISC002",
      59,
      "MCH",
      "Ery. Mean Corpuscular Hemoglobin",
      "HEMATOLOGY",
      "31",
      "pg",
      "26",
      "34",
      "1.92386",
      1.92386,
      "fmol",
      1.6,
      2.1,
      "NORMAL",
      "",
      4,
      "WEEK 2",
      "TREATMENT",
      "2012-11-28T10:00",
      14
    ],
    [
      "CDISCPILOT01",
      "LB",
      "CDISC002",
      60,
      "MCHC",
      "Ery. Mean Corpuscular HGB Concentration",
      "HEMATOLOGY",
      "33",
      "g/dL",
      "31",
      "38",
      "20.4798",
      20.4798,
      "mmol/L",
      19,
      24,
      "NORMAL",
      "",
      4,
      "WEEK 2",
      "TREATMENT",
      "2012-11-28T10:00",
      14
    ],
    [
      "CDISCPILOT01",
      "LB",
      "CDISC002",
      61,
      "MCV",
      "Ery. Mean Corpuscular Volume",
      "HEMATOLOGY",
      "92",
      "fL",
      "80",
      "100",
      "92",
      92,
      "fL",
      80,
      100,
      "NORMAL",
      "",
      4,
      "WEEK 2",
      "TREATMENT",
      "2012-11-28T10:00",
      14
    ],
    [
      "CDISCPILOT01",
      "LB",
      "CDISC002",
      62,
      "MONO",
      "Monocytes",
      "HEMATOLOGY",
      "0.92",
      "10^9/L",
      "0.12",
      "0.92",
      "0.92",
      0.92,
      "10^9/L",
      0.12,
      0.92,
      "NORMAL",
      "",
      4,
      "WEEK 2",
      "TREATMENT",
      "2012-11-28T10:00",
      14
    ],
    [
      "CDISCPILOT01",
      "LB",
      "CDISC002",
      63,
      "SODIUM",
      "Sodium",
      "CHEMISTRY",
      "137",
      "mEq/L",
      "135",
      "145",
      "137",
      137,
      "mmol/L",
      135,
      145,
      "NORMAL",
      "",
      4,
      "WEEK 2",
      "TREATMENT",
      "2012-11-28T10:00",
      14
    ],
    [
      "CDISCPILOT01",
      "LB",
      "CDISC002",
      64,
      "PH",
      "pH",
      "URINALYSIS",
      "5",
      "",
      "5",
      "8",
      "5",
      5,
      "",
      5,
      8,
      "NORMAL",
      "",
      4,
      "WEEK 2",
      "TREATMENT",
      "2012-11-28T10:00",
      14
    ],
    [
      "CDISCPILOT01",
      "LB",
      "CDISC002",
      65,
      "PHOS",
      "Phosphate",
      "CHEMISTRY",
      "4.1",
      "mg/dL",
      "2.2",
      "5.1",
      "1.32389",
      1.32389,
      "mmol/L",
      0.71,
      1.65,
      "NORMAL",
      "",
      4,
      "WEEK 2",
      "TREATMENT",
      "2012-11-28T10:00",
      14
    ],
    [
      "CDISCPILOT01",
      "LB",
      "CDISC002",
      66,
      "PLAT",
      "Platelets",
      "HEMATOLOGY",
      "330",
      "10^9/L",
      "130",
      "394",
      "330",
      330,
      "10^9/L",
      130,
      394,
      "NORMAL",
      "",
      4,
      "WEEK 2",
      "TREATMENT",
      "2012-11-28T10:00",
      14
    ],
    [
      "CDISCPILOT01",
      "LB",
      "CDISC002",
      67,
      "PROT",
      "Protein",
      "CHEMISTRY",
      "6.6",
      "g/dL",
      "6",
      "8",
      "66",
      66,
      "g/L",
      60,
      80,
      "NORMAL",
      "",
      4,
      "WEEK 2",
      "TREATMENT",
      "2012-11-28T10:00",
      14
    ],
    [
      "CDISCPILOT01",
      "LB",
      "CDISC002",
      68,
      "RBC",
      "Erythrocytes",
      "HEMATOLOGY",
      "4.50",
      "10^12/L",
      "3.9",
      "5.5",
      "4.5",
      4.5,
      "10^12/L",
      3.9,
      5.5,
      "NORMAL",
      "",
      4,
      "WEEK 2",
      "TREATMENT",
      "2012-11-28T10:00",
      14
    ],
    [
      "CDISCPILOT01",
      "LB",
      "CDISC002",
      69,
      "SPGRAV",
      "Specific Gravity",
      "URINALYSIS",
      "1.016",
      "",
      "1.006",
      "1.03",
      "1.016",
      1.016,
      "",
      1.006,
      1.03,
      "NORMAL",
      "",
      4,
      "WEEK 2",
      "TREATMENT",
      "2012-11-28T10:00",
      14
    ],
    [
      "CDISCPILOT01",
      "LB",
      "CDISC002",
      70,
      "URATE",
      "Urate",
      "CHEMISTRY",
      "5.0",
      "mg/dL",
      "2.5",
      "7.5",
      "297.4",
      297.4,
      "umol/L",
      149,
      446,
      "NORMAL",
      "",
      4,
      "WEEK 2",
      "TREATMENT",
      "2012-11-28T10:00",
      14
    ],
    [
      "CDISCPILOT01",
      "LB",
      "CDISC002",
      71,
      "UROBIL",
      "Urobilinogen",
      "URINALYSIS",
      "0",
      "",
      "",
      "",
      "0",
      0,
      "",
      null,
      null,
      "NORMAL",
      "",
      4,
      "WEEK 2",
      "TREATMENT",
      "2012-11-28T10:00",
      14
    ],
    [
      "CDISCPILOT01",
      "LB",
      "CDISC002",
      72,
      "WBC",
      "Leukocytes",
      "HEMATOLOGY",
      "8.17",
      "10^9/L",
      "3.8",
      "10.7",
      "8.17",
      8.17,
      "10^9/L",
      3.8,
      10.7,
      "NORMAL",
      "",
      4,
      "WEEK 2",
      "TREATMENT",
      "2012-11-28T10:00",
      14
    ],
    [
      "CDISCPILOT01",
      "LB",
      "CDISC002",
      73,
      "ALB",
      "Albumin",
      "CHEMISTRY",
      "3.6",
      "g/dL",
      "3.5",
      "4.6",
      "36",
      36,
      "g/L",
      35,
      46,
      "NORMAL",
      "",
      5,
      "WEEK 4",
      "TREATMENT",
      "2012-12-11T12:16",
      27
    ],
    [
      "CDISCPILOT01",
      "LB",
      "CDISC002",
      74,
      "ALP",
      "Alkaline Phosphatase",
      "CHEMISTRY",
      "136",
      "U/L",
      "35",
      "115",
      "136",
      136,
      "U/L",
      35,
      115,
      "HIGH",
      "",
      5,
      "WEEK 4",
      "TREATMENT",
      "2012-12-11T12:16",
      27
    ],
    [
      "CDISCPILOT01",
      "LB",
      "CDISC002",
      75,
      "ALT",
      "Alanine Aminotransferase",
      "CHEMISTRY",
      "14",
      "U/L",
      "6",
      "32",
      "14",
      14,
      "U/L",
      6,
      32,
      "NORMAL",
      "",
      5,
      "WEEK 4",
      "TREATMENT",
      "2012-12-11T12:16",
      27
    ],
    [
      "CDISCPILOT01",
      "LB",
      "CDISC002",
      76,
      "AST",
      "Aspartate Aminotransferase",
      "CHEMISTRY",
      "15",
      "U/L",
      "9",
      "34",
      "15",
      15,
      "U/L",
      9,
      34,
      "NORMAL",
      "",
      5,
      "WEEK 4",
      "TREATMENT",
      "2012-12-11T12:16",
      27
    ],
    [
      "CDISCPILOT01",
      "LB",
      "CDISC002",
      77,
      "BASO",
      "Basophils",
      "HEMATOLOGY",
      "0.04",
      "10^9/L",
      "0",
      "0.2",
      "0.04",
      0.04,
      "10^9/L",
      0,
      0.2,
      "NORMAL",
      "",
      5,
      "WEEK 4",
      "TREATMENT",
      "2012-12-11T12:16",
      27
    ],
    [
      "CDISCPILOT01",
      "LB",
      "CDISC002",
      78,
      "BILI",
      "Bilirubin",
      "CHEMISTRY",
      "0.9",
      "mg/dL",
      "0.2",
      "1.2",
      "15.39",
      15.39,
      "umol/L",
      3,
      21,
      "NORMAL",
      "",
      5,
      "WEEK 4",
      "TREATMENT",
      "2012-12-11T12:16",
      27
    ],
    [
      "CDISCPILOT01",
      "LB",
      "CDISC002",
      79,
      "UREAN",
      "Urea Nitrogen",
      "CHEMISTRY",
      "21",
      "mg/dL",
      "4",
      "24",
      "7.497",
      7.497,
      "mmol/L",
      1.4,
      8.6,
      "NORMAL",
      "",
      5,
      "WEEK 4",
      "TREATMENT",
      "2012-12-11T12:16",
      27
    ],
    [
      "CDISCPILOT01",
      "LB",
      "CDISC002",
      80,
      "CA",
      "Calcium",
      "CHEMISTRY",
      "9.0",
      "mg/dL",
      "8.4",
      "10.3",
      "2.2455",
      2.2455,
      "mmol/L",
      2.1,
      2.57,
      "NORMAL",
      "",
      5,
      "WEEK 4",
      "TREATMENT",
      "2012-12-11T12:16",
      27
    ],
    [
      "CDISCPILOT01",
      "LB",
      "CDISC002",
      81,
      "CHOL",
      "Cholesterol",
      "CHEMISTRY",
      "205",
      "mg/dL",
      "156",
      "300",
      "5.3013",
      5.3013,
      "mmol/L",
      4.03,
      7.76,
      "NORMAL",
      "",
      5,
      "WEEK 4",
      "TREATMENT",
      "2012-12-11T12:16",
      27
    ],
    [
      "CDISCPILOT01",
      "LB",
      "CDISC002",
      82,
      "CK",
      "Creatine Kinase",
      "CHEMISTRY",
      "61",
      "U/L",
      "21",
      "169",
      "61",
      61,
      "U/L",
      21,
      169,
      "NORMAL",
      "",
      5,
      "WEEK 4",
      "TREATMENT",
      "2012-12-11T12:16",
      27
    ],
    [
      "CDISCPILOT01",
      "LB",
      "CDISC002",
      83,
      "CL",
      "Chloride",
      "CHEMISTRY",
      "101",
      "mEq/L",
      "94",
      "112",
      "101",
      101,
      "mmol/L",
      94,
      112,
      "NORMAL",
      "",
      5,
      "WEEK 4",
      "TREATMENT",
      "2012-12-11T12:16",
      27
    ],
    [
      "CDISCPILOT01",
      "LB",
      "CDISC002",
      84,
      "CREAT",
      "Creatinine",
      "CHEMISTRY",
      "1.1",
      "mg/dL",
      "0.7",
      "1.4",
      "97.24",
      97.24,
      "umol/L",
      62,
      124,
      "NORMAL",
      "",
      5,
      "WEEK 4",
      "TREATMENT",
      "2012-12-11T12:16",
      27
    ],
    [
      "CDISCPILOT01",
      "LB",
      "CDISC002",
      85,
      "EOS",
      "Eosinophils",
      "HEMATOLOGY",
      "0.04",
      "10^9/L",
      "0",
      "0.57",
      "0.04",
      0.04,
      "10^9/L",
      0,
      0.57,
      "NORMAL",
      "",
      5,
      "WEEK 4",
      "TREATMENT",
      "2012-12-11T12:16",
      27
    ],
    [
      "CDISCPILOT01",
      "LB",
      "CDISC002",
      86,
      "GGT",
      "Gamma Glutamyl Transferase",
      "CHEMISTRY",
      "20",
      "U/L",
      "5",
      "50",
      "20",
      20,
      "U/L",
      5,
      50,
      "NORMAL",
      "",
      5,
      "WEEK 4",
      "TREATMENT",
      "2012-12-11T12:16",
      27
    ],
    [
      "CDISCPILOT01",
      "LB",
      "CDISC002",
      87,
      "GLUC",
      "Glucose",
      "CHEMISTRY",
      "73",
      "mg/dL",
      "50",
      "250",
      "4.05223",
      4.05223,
      "mmol/L",
      2.8,
      13.9,
      "NORMAL",
      "",
      5,
      "WEEK 4",
      "TREATMENT",
      "2012-12-11T12:16",
      27
    ],
    [
      "CDISCPILOT01",
      "LB",
      "CDISC002",
      88,
      "HCT",
      "Hematocrit",
      "HEMATOLOGY",
      "40.0",
      "%",
      "34",
      "48",
      "0.4",
      0.4,
      "",
      0.34,
      0.48,
      "NORMAL",
      "",
      5,
      "WEEK 4",
      "TREATMENT",
      "2012-12-11T12:16",
      27
    ],
    [
      "CDISCPILOT01",
      "LB",
      "CDISC002",
      89,
      "HGB",
      "Hemoglobin",
      "HEMATOLOGY",
      "13.2",
      "g/dL",
      "11.5",
      "15.8",
      "8.19192",
      8.19192,
      "mmol/L",
      7.14,
      9.81,
      "NORMAL",
      "",
      5,
      "WEEK 4",
      "TREATMENT",
      "2012-12-11T12:16",
      27
    ],
    [
      "CDISCPILOT01",
      "LB",
      "CDISC002",
      90,
      "K",
      "Potassium",
      "CHEMISTRY",
      "4.2",
      "mEq/L",
      "3.4",
      "5.4",
      "4.2",
      4.2,
      "mmol/L",
      3.4,
      5.4,
      "NORMAL",
      "",
      5,
      "WEEK 4",
      "TREATMENT",
      "2012-12-11T12:16",
      27
    ],
    [
      "CDISCPILOT01",
      "LB",
      "CDISC002",
      91,
      "LYM",
      "Lymphocytes",
      "HEMATOLOGY",
      "1.18",
      "10^9/L",
      "0.8",
      "3",
      "1.18",
      1.18,
      "10^9/L",
      0.8,
      3,
      "NORMAL",
      "",
      5,
      "WEEK 4",
      "TREATMENT",
      "2012-12-11T12:16",
      27
    ],
    [
      "CDISCPILOT01",
      "LB",
      "CDISC002",
      92,
      "MCH",
      "Ery. Mean Corpuscular Hemoglobin",
      "HEMATOLOGY",
      "30",
      "pg",
      "26",
      "34",
      "1.8618",
      1.8618,
      "fmol",
      1.6,
      2.1,
      "NORMAL",
      "",
      5,
      "WEEK 4",
      "TREATMENT",
      "2012-12-11T12:16",
      27
    ],
    [
      "CDISCPILOT01",
      "LB",
      "CDISC002",
      93,
      "MCHC",
      "Ery. Mean Corpuscular HGB Concentration",
      "HEMATOLOGY",
      "33",
      "g/dL",
      "31",
      "38",
      "20.4798",
      20.4798,
      "mmol/L",
      19,
      24,
      "NORMAL",
      "",
      5,
      "WEEK 4",
      "TREATMENT",
      "2012-12-11T12:16",
      27
    ],
    [
      "CDISCPILOT01",
      "LB",
      "CDISC002",
      94,
      "MCV",
      "Ery. Mean Corpuscular Volume",
      "HEMATOLOGY",
      "92",
      "fL",
      "80",
      "100",
      "92",
      92,
      "fL",
      80,
      100,
      "NORMAL",
      "",
      5,
      "WEEK 4",
      "TREATMENT",
      "2012-12-11T12:16",
      27
    ],
    [
      "CDISCPILOT01",
      "LB",
      "CDISC002",
      95,
      "MONO",
      "Monocytes",
      "HEMATOLOGY",
      "0.88",
      "10^9/L",
      "0.12",
      "0.92",
      "0.88",
      0.88,
      "10^9/L",
      0.12,
      0.92,
      "NORMAL",
      "",
      5,
      "WEEK 4",
      "TREATMENT",
      "2012-12-11T12:16",
      27
    ],
    [
      "CDISCPILOT01",
      "LB",
      "CDISC002",
      96,
      "SODIUM",
      "Sodium",
      "CHEMISTRY",
      "133",
      "mEq/L",
      "135",
      "145",
      "133",
      133,
      "mmol/L",
      135,
      145,
      "LOW",
      "",
      5,
      "WEEK 4",
      "TREATMENT",
      "2012-12-11T12:16",
      27
    ],
    [
      "CDISCPILOT01",
      "LB",
      "CDISC002",
      97,
      "PHOS",
      "Phosphate",
      "CHEMISTRY",
      "3.4",
      "mg/dL",
      "2.2",
      "5.1",
      "1.09786",
      1.09786,
      "mmol/L",
      0.71,
      1.65,
      "NORMAL",
      "",
      5,
      "WEEK 4",
      "TREATMENT",
      "2012-12-11T12:16",
      27
    ],
    [
      "CDISCPILOT01",
      "LB",
      "CDISC002",
      98,
      "PLAT",
      "Platelets",
      "HEMATOLOGY",
      "379",
      "10^9/L",
      "130",
      "394",
      "379",
      379,
      "10^9/L",
      130,
      394,
      "NORMAL",
      "",
      5,
      "WEEK 4",
      "TREATMENT",
      "2012-12-11T12:16",
      27
    ],
    [
      "CDISCPILOT01",
      "LB",
      "CDISC002",
      99,
      "PROT",
      "Protein",
      "CHEMISTRY",
      "6.7",
      "g/dL",
      "6",
      "8",
      "67",
      67,
      "g/L",
      60,
      80,
      "NORMAL",
      "",
      5,
      "WEEK 4",
      "TREATMENT",
      "2012-12-11T12:16",
      27
    ],
    [
      "CDISCPILOT01",
      "LB",
      "CDISC002",
      100,
      "RBC",
      "Erythrocytes",
      "HEMATOLOGY",
      "4.40",
      "10^12/L",
      "3.9",
      "5.5",
      "4.4",
      4.4,
      "10^12/L",
      3.9,
      5.5,
      "NORMAL",
      "",
      5,
      "WEEK 4",
      "TREATMENT",
      "2012-12-11T12:16",
      27
    ],
    [
      "CDISCPILOT01",
      "LB",
      "CDISC002",
      101,
      "URATE",
      "Urate",
      "CHEMISTRY",
      "3.9",
      "mg/dL",
      "2.5",
      "7.5",
      "231.972",
      231.972,
      "umol/L",
      149,
      446,
      "NORMAL",
      "",
      5,
      "WEEK 4",
      "TREATMENT",
      "2012-12-11T12:16",
      27
    ],
    [
      "CDISCPILOT01",
      "LB",
      "CDISC002",
      102,
      "WBC",
      "Leukocytes",
      "HEMATOLOGY",
      "7.53",
      "10^9/L",
      "3.8",
      "10.7",
      "7.53",
      7.53,
      "10^9/L",
      3.8,
      10.7,
      "NORMAL",
      "",
      5,
      "WEEK 4",
      "TREATMENT",
      "2012-12-11T12:16",
      27
    ],
    [
      "CDISCPILOT01",
      "LB",
      "CDISC002",
      103,
      "ALB",
      "Albumin",
      "CHEMISTRY",
      "3.3",
      "g/dL",
      "3.5",
      "4.6",
      "33",
      33,
      "g/L",
      35,
      46,
      "LOW",
      "",
      7,
      "WEEK 6",
      "TREATMENT",
      "2012-12-25T14:00",
      41
    ],
    [
      "CDISCPILOT01",
      "LB",
      "CDISC002",
      104,
      "ALP",
      "Alkaline Phosphatase",
      "CHEMISTRY",
      "132",
      "U/L",
      "35",
      "115",
      "132",
      132,
      "U/L",
      35,
      115,
      "HIGH",
      "",
      7,
      "WEEK 6",
      "TREATMENT",
      "2012-12-25T14:00",
      41
    ],
    [
      "CDISCPILOT01",
      "LB",
      "CDISC002",
      105,
      "ALT",
      "Alanine Aminotransferase",
      "CHEMISTRY",
      "15",
      "U/L",
      "6",
      "32",
      "15",
      15,
      "U/L",
      6,
      32,
      "NORMAL",
      "",
      7,
      "WEEK 6",
      "TREATMENT",
      "2012-12-25T14:00",
      41
    ],
    [
      "CDISCPILOT01",
      "LB",
      "CDISC002",
      106,
      "AST",
      "Aspartate Aminotransferase",
      "CHEMISTRY",
      "15",
      "U/L",
      "9",
      "34",
      "15",
      15,
      "U/L",
      9,
      34,
      "NORMAL",
      "",
      7,
      "WEEK 6",
      "TREATMENT",
      "2012-12-25T14:00",
      41
    ],
    [
      "CDISCPILOT01",
      "LB",
      "CDISC002",
      107,
      "BASO",
      "Basophils",
      "HEMATOLOGY",
      "0.04",
      "10^9/L",
      "0",
      "0.2",
      "0.04",
      0.04,
      "10^9/L",
      0,
      0.2,
      "NORMAL",
      "",
      7,
      "WEEK 6",
      "TREATMENT",
      "2012-12-25T14:00",
      41
    ],
    [
      "CDISCPILOT01",
      "LB",
      "CDISC002",
      108,
      "BILI",
      "Bilirubin",
      "CHEMISTRY",
      "0.9",
      "mg/dL",
      "0.2",
      "1.2",
      "15.39",
      15.39,
      "umol/L",
      3,
      21,
      "NORMAL",
      "",
      7,
      "WEEK 6",
      "TREATMENT",
      "2012-12-25T14:00",
      41
    ],
    [
      "CDISCPILOT01",
      "LB",
      "CDISC002",
      109,
      "UREAN",
      "Urea Nitrogen",
      "CHEMISTRY",
      "24",
      "mg/dL",
      "4",
      "24",
      "8.568",
      8.568,
      "mmol/L",
      1.4,
      8.6,
      "NORMAL",
      "",
      7,
      "WEEK 6",
      "TREATMENT",
      "2012-12-25T14:00",
      41
    ],
    [
      "CDISCPILOT01",
      "LB",
      "CDISC002",
      110,
      "CA",
      "Calcium",
      "CHEMISTRY",
      "8.6",
      "mg/dL",
      "8.4",
      "10.3",
      "2.1457",
      2.1457,
      "mmol/L",
      2.1,
      2.57,
      "NORMAL",
      "",
      7,
      "WEEK 6",
      "TREATMENT",
      "2012-12-25T14:00",
      41
    ],
    [
      "CDISCPILOT01",
      "LB",
      "CDISC002",
      111,
      "CHOL",
      "Cholesterol",
      "CHEMISTRY",
      "170",
      "mg/dL",
      "156",
      "300",
      "4.3962",
      4.3962,
      "mmol/L",
      4.03,
      7.76,
      "NORMAL",
      "",
      7,
      "WEEK 6",
      "TREATMENT",
      "2012-12-25T14:00",
      41
    ],
    [
      "CDISCPILOT01",
      "LB",
      "CDISC002",
      112,
      "CK",
      "Creatine Kinase",
      "CHEMISTRY",
      "39",
      "U/L",
      "21",
      "169",
      "39",
      39,
      "U/L",
      21,
      169,
      "NORMAL",
      "",
      7,
      "WEEK 6",
      "TREATMENT",
      "2012-12-25T14:00",
      41
    ],
    [
      "CDISCPILOT01",
      "LB",
      "CDISC002",
      113,
      "CL",
      "Chloride",
      "CHEMISTRY",
      "103",
      "mEq/L",
      "94",
      "112",
      "103",
      103,
      "mmol/L",
      94,
      112,
      "NORMAL",
      "",
      7,
      "WEEK 6",
      "TREATMENT",
      "2012-12-25T14:00",
      41
    ],
    [
      "CDISCPILOT01",
      "LB",
      "CDISC002",
      114,
      "CREAT",
      "Creatinine",
      "CHEMISTRY",
      "1.1",
      "mg/dL",
      "0.7",
      "1.4",
      "97.24",
      97.24,
      "umol/L",
      62,
      124,
      "NORMAL",
      "",
      7,
      "WEEK 6",
      "TREATMENT",
      "2012-12-25T14:00",
      41
    ],
    [
      "CDISCPILOT01",
      "LB",
      "CDISC002",
      115,
      "EOS",
      "Eosinophils",
      "HEMATOLOGY",
      "0.08",
      "10^9/L",
      "0",
      "0.57",
      "0.08",
      0.08,
      "10^9/L",
      0,
      0.57,
      "NORMAL",
      "",
      7,
      "WEEK 6",
      "TREATMENT",
      "2012-12-25T14:00",
      41
    ],
    [
      "CDISCPILOT01",
      "LB",
      "CDISC002",
      116,
      "GGT",
      "Gamma Glutamyl Transferase",
      "CHEMISTRY",
      "25",
      "U/L",
      "5",
      "50",
      "25",
      25,
      "U/L",
      5,
      50,
      "NORMAL",
      "",
      7,
      "WEEK 6",
      "TREATMENT",
      "2012-12-25T14:00",
      41
    ],
    [
      "CDISCPILOT01",
      "LB",
      "CDISC002",
      117,
      "GLUC",
      "Glucose",
      "CHEMISTRY",
      "80",
      "mg/dL",
      "50",
      "250",
      "4.4408",
      4.4408,
      "mmol/L",
      2.8,
      13.9,
      "NORMAL",
      "",
      7,
      "WEEK 6",
      "TREATMENT",
      "2012-12-25T14:00",
      41
    ],
    [
      "CDISCPILOT01",
      "LB",
      "CDISC002",
      118,
      "HCT",
      "Hematocrit",
      "HEMATOLOGY",
      "38.0",
      "%",
      "34",
      "48",
      "0.38",
      0.38,
      "",
      0.34,
      0.48,
      "NORMAL",
      "",
      7,
      "WEEK 6",
      "TREATMENT",
      "2012-12-25T14:00",
      41
    ],
    [
      "CDISCPILOT01",
      "LB",
      "CDISC002",
      119,
      "HGB",
      "Hemoglobin",
      "HEMATOLOGY",
      "12.6",
      "g/dL",
      "11.5",
      "15.8",
      "7.81956",
      7.81956,
      "mmol/L",
      7.14,
      9.81,
      "NORMAL",
      "",
      7,
      "WEEK 6",
      "TREATMENT",
      "2012-12-25T14:00",
      41
    ],
    [
      "CDISCPILOT01",
      "LB",
      "CDISC002",
      120,
      "K",
      "Potassium",
      "CHEMISTRY",
      "4.3",
      "mEq/L",
      "3.4",
      "5.4",
      "4.3",
      4.3,
      "mmol/L",
      3.4,
      5.4,
      "NORMAL",
      "",
      7,
      "WEEK 6",
      "TREATMENT",
      "2012-12-25T14:00",
      41
    ],
    [
      "CDISCPILOT01",
      "LB",
      "CDISC002",
      121,
      "LYM",
      "Lymphocytes",
      "HEMATOLOGY",
      "1.40",
      "10^9/L",
      "0.8",
      "3",
      "1.4",
      1.4,
      "10^9/L",
      0.8,
      3,
      "NORMAL",
      "",
      7,
      "WEEK 6",
      "TREATMENT",
      "2012-12-25T14:00",
      41
    ],
    [
      "CDISCPILOT01",
      "LB",
      "CDISC002",
      122,
      "MCH",
      "Ery. Mean Corpuscular Hemoglobin",
      "HEMATOLOGY",
      "31",
      "pg",
      "26",
      "34",
      "1.92386",
      1.92386,
      "fmol",
      1.6,
      2.1,
      "NORMAL",
      "",
      7,
      "WEEK 6",
      "TREATMENT",
      "2012-12-25T14:00",
      41
    ],
    [
      "CDISCPILOT01",
      "LB",
      "CDISC002",
      123,
      "MCHC",
      "Ery. Mean Corpuscular HGB Concentration",
      "HEMATOLOGY",
      "34",
      "g/dL",
      "31",
      "38",
      "21.1004",
      21.1004,
      "mmol/L",
      19,
      24,
      "NORMAL",
      "",
      7,
      "WEEK 6",
      "TREATMENT",
      "2012-12-25T14:00",
      41
    ],
    [
      "CDISCPILOT01",
      "LB",
      "CDISC002",
      124,
      "MCV",
      "Ery. Mean Corpuscular Volume",
      "HEMATOLOGY",
      "93",
      "fL",
      "80",
      "100",
      "93",
      93,
      "fL",
      80,
      100,
      "NORMAL",
      "",
      7,
      "WEEK 6",
      "TREATMENT",
      "2012-12-25T14:00",
      41
    ],
    [
      "CDISCPILOT01",
      "LB",
      "CDISC002",
      125,
      "MONO",
      "Monocytes",
      "HEMATOLOGY",
      "0.69",
      "10^9/L",
      "0.12",
      "0.92",
      "0.69",
      0.69,
      "10^9/L",
      0.12,
      0.92,
      "NORMAL",
      "",
      7,
      "WEEK 6",
      "TREATMENT",
      "2012-12-25T14:00",
      41
    ],
    [
      "CDISCPILOT01",
      "LB",
      "CDISC002",
      126,
      "SODIUM",
      "Sodium",
      "CHEMISTRY",
      "135",
      "mEq/L",
      "135",
      "145",
      "135",
      135,
      "mmol/L",
      135,
      145,
      "NORMAL",
      "",
      7,
      "WEEK 6",
      "TREATMENT",
      "2012-12-25T14:00",
      41
    ],
    [
      "CDISCPILOT01",
      "LB",
      "CDISC002",
      127,
      "PHOS",
      "Phosphate",
      "CHEMISTRY",
      "4.0",
      "mg/dL",
      "2.2",
      "5.1",
      "1.2916",
      1.2916,
      "mmol/L",
      0.71,
      1.65,
      "NORMAL",
      "",
      7,
      "WEEK 6",
      "TREATMENT",
      "2012-12-25T14:00",
      41
    ],
    [
      "CDISCPILOT01",
      "LB",
      "CDISC002",
      128,
      "PLAT",
      "Platelets",
      "HEMATOLOGY",
      "326",
      "10^9/L",
      "130",
      "394",
      "326",
      326,
      "10^9/L",
      130,
      394,
      "NORMAL",
      "",
      7,
      "WEEK 6",
      "TREATMENT",
      "2012-12-25T14:00",
      41
    ],
    [
      "CDISCPILOT01",
      "LB",
      "CDISC002",
      129,
      "PROT",
      "Protein",
      "CHEMISTRY",
      "6.2",
      "g/dL",
      "6",
      "8",
      "62",
      62,
      "g/L",
      60,
      80,
      "NORMAL",
      "",
      7,
      "WEEK 6",
      "TREATMENT",
      "2012-12-25T14:00",
      41
    ],
    [
      "CDISCPILOT01",
      "LB",
      "CDISC002",
      130,
      "RBC",
      "Erythrocytes",
      "HEMATOLOGY",
      "4.10",
      "10^12/L",
      "3.9",
      "5.5",
      "4.1",
      4.1,
      "10^12/L",
      3.9,
      5.5,
      "NORMAL",
      "",
      7,
      "WEEK 6",
      "TREATMENT",
      "2012-12-25T14:00",
      41
    ],
    [
      "CDISCPILOT01",
      "LB",
      "CDISC002",
      131,
      "URATE",
      "Urate",
      "CHEMISTRY",
      "4.7",
      "mg/dL",
      "2.5",
      "7.5",
      "279.556",
      279.556,
      "umol/L",
      149,
      446,
      "NORMAL",
      "",
      7,
      "WEEK 6",
      "TREATMENT",
      "2012-12-25T14:00",
      41
    ],
    [
      "CDISCPILOT01",
      "LB",
      "CDISC002",
      132,
      "WBC",
      "Leukocytes",
      "HEMATOLOGY",
      "6.26",
      "10^9/L",
      "3.8",
      "10.7",
      "6.26",
      6.26,
      "10^9/L",
      3.8,
      10.7,
      "NORMAL",
      "",
      7,
      "WEEK 6",
      "TREATMENT",
      "2012-12-25T14:00",
      41
    ],
    [
      "CDISCPILOT01",
      "LB",
      "CDISC002",
      133,
      "ALB",
      "Albumin",
      "CHEMISTRY",
      "3.3",
      "g/dL",
      "3.5",
      "4.6",
      "33",
      33,
      "g/L",
      35,
      46,
      "LOW",
      "",
      8,
      "WEEK 8",
      "TREATMENT",
      "2013-01-08T12:13",
      55
    ],
    [
      "CDISCPILOT01",
      "LB",
      "CDISC002",
      134,
      "ALP",
      "Alkaline Phosphatase",
      "CHEMISTRY",
      "183",
      "U/L",
      "35",
      "115",
      "183",
      183,
      "U/L",
      35,
      115,
      "HIGH",
      "",
      8,
      "WEEK 8",
      "TREATMENT",
      "2013-01-08T12:13",
      55
    ],
    [
      "CDISCPILOT01",
      "LB",
      "CDISC002",
      135,
      "ALT",
      "Alanine Aminotransferase",
      "CHEMISTRY",
      "21",
      "U/L",
      "6",
      "32",
      "21",
      21,
      "U/L",
      6,
      32,
      "NORMAL",
      "",
      8,
      "WEEK 8",
      "TREATMENT",
      "2013-01-08T12:13",
      55
    ],
    [
      "CDISCPILOT01",
      "LB",
      "CDISC002",
      136,
      "AST",
      "Aspartate Aminotransferase",
      "CHEMISTRY",
      "17",
      "U/L",
      "9",
      "34",
      "17",
      17,
      "U/L",
      9,
      34,
      "NORMAL",
      "",
      8,
      "WEEK 8",
      "TREATMENT",
      "2013-01-08T12:13",
      55
    ],
    [
      "CDISCPILOT01",
      "LB",
      "CDISC002",
      137,
      "BASO",
      "Basophils",
      "HEMATOLOGY",
      "0.02",
      "10^9/L",
      "0",
      "0.2",
      "0.02",
      0.02,
      "10^9/L",
      0,
      0.2,
      "NORMAL",
      "",
      8,
      "WEEK 8",
      "TREATMENT",
      "2013-01-08T12:13",
      55
    ],
    [
      "CDISCPILOT01",
      "LB",
      "CDISC002",
      138,
      "BILI",
      "Bilirubin",
      "CHEMISTRY",
      "1.4",
      "mg/dL",
      "0.2",
      "1.2",
      "23.94",
      23.94,
      "umol/L",
      3,
      21,
      "HIGH",
      "",
      8,
      "WEEK 8",
      "TREATMENT",
      "2013-01-08T12:13",
      55
    ],
    [
      "CDISCPILOT01",
      "LB",
      "CDISC002",
      139,
      "UREAN",
      "Urea Nitrogen",
      "CHEMISTRY",
      "24",
      "mg/dL",
      "4",
      "24",
      "8.568",
      8.568,
      "mmol/L",
      1.4,
      8.6,
      "NORMAL",
      "",
      8,
      "WEEK 8",
      "TREATMENT",
      "2013-01-08T12:13",
      55
    ],
    [
      "CDISCPILOT01",
      "LB",
      "CDISC002",
      140,
      "CA",
      "Calcium",
      "CHEMISTRY",
      "9.0",
      "mg/dL",
      "8.4",
      "10.3",
      "2.2455",
      2.2455,
      "mmol/L",
      2.1,
      2.57,
      "NORMAL",
      "",
      8,
      "WEEK 8",
      "TREATMENT",
      "2013-01-08T12:13",
      55
    ],
    [
      "CDISCPILOT01",
      "LB",
      "CDISC002",
      141,
      "CHOL",
      "Cholesterol",
      "CHEMISTRY",
      "162",
      "mg/dL",
      "156",
      "300",
      "4.18932",
      4.18932,
      "mmol/L",
      4.03,
      7.76,
      "NORMAL",
      "",
      8,
      "WEEK 8",
      "TREATMENT",
      "2013-01-08T12:13",
      55
    ],
    [
      "CDISCPILOT01",
      "LB",
      "CDISC002",
      142,
      "CK",
      "Creatine Kinase",
      "CHEMISTRY",
      "27",
      "U/L",
      "21",
      "169",
      "27",
      27,
      "U/L",
      21,
      169,
      "NORMAL",
      "",
      8,
      "WEEK 8",
      "TREATMENT",
      "2013-01-08T12:13",
      55
    ],
    [
      "CDISCPILOT01",
      "LB",
      "CDISC002",
      143,
      "CL",
      "Chloride",
      "CHEMISTRY",
      "101",
      "mEq/L",
      "94",
      "112",
      "101",
      101,
      "mmol/L",
      94,
      112,
      "NORMAL",
      "",
      8,
      "WEEK 8",
      "TREATMENT",
      "2013-01-08T12:13",
      55
    ],
    [
      "CDISCPILOT01",
      "LB",
      "CDISC002",
      144,
      "CREAT",
      "Creatinine",
      "CHEMISTRY",
      "1.3",
      "mg/dL",
      "0.7",
      "1.4",
      "114.92",
      114.92,
      "umol/L",
      62,
      124,
      "NORMAL",
      "",
      8,
      "WEEK 8",
      "TREATMENT",
      "2013-01-08T12:13",
      55
    ],
    [
      "CDISCPILOT01",
      "LB",
      "CDISC002",
      145,
      "EOS",
      "Eosinophils",
      "HEMATOLOGY",
      "0.05",
      "10^9/L",
      "0",
      "0.57",
      "0.05",
      0.05,
      "10^9/L",
      0,
      0.57,
      "NORMAL",
      "",
      8,
      "WEEK 8",
      "TREATMENT",
      "2013-01-08T12:13",
      55
    ],
    [
      "CDISCPILOT01",
      "LB",
      "CDISC002",
      146,
      "GGT",
      "Gamma Glutamyl Transferase",
      "CHEMISTRY",
      "65",
      "U/L",
      "5",
      "50",
      "65",
      65,
      "U/L",
      5,
      50,
      "HIGH",
      "",
      8,
      "WEEK 8",
      "TREATMENT",
      "2013-01-08T12:13",
      55
    ],
    [
      "CDISCPILOT01",
      "LB",
      "CDISC002",
      147,
      "GLUC",
      "Glucose",
      "CHEMISTRY",
      "100",
      "mg/dL",
      "50",
      "250",
      "5.551",
      5.551,
      "mmol/L",
      2.8,
      13.9,
      "NORMAL",
      "",
      8,
      "WEEK 8",
      "TREATMENT",
      "2013-01-08T12:13",
      55
    ],
    [
      "CDISCPILOT01",
      "LB",
      "CDISC002",
      148,
      "HCT",
      "Hematocrit",
      "HEMATOLOGY",
      "42.0",
      "%",
      "34",
      "48",
      "0.42",
      0.42,
      "",
      0.34,
      0.48,
      "NORMAL",
      "",
      8,
      "WEEK 8",
      "TREATMENT",
      "2013-01-08T12:13",
      55
    ],
    [
      "CDISCPILOT01",
      "LB",
      "CDISC002",
      149,
      "HGB",
      "Hemoglobin",
      "HEMATOLOGY",
      "13.9",
      "g/dL",
      "11.5",
      "15.8",
      "8.62634",
      8.62634,
      "mmol/L",
      7.14,
      9.81,
      "NORMAL",
      "",
      8,
      "WEEK 8",
      "TREATMENT",
      "2013-01-08T12:13",
      55
    ],
    [
      "CDISCPILOT01",
      "LB",
      "CDISC002",
      150,
      "K",
      "Potassium",
      "CHEMISTRY",
      "3.6",
      "mEq/L",
      "3.4",
      "5.4",
      "3.6",
      3.6,
      "mmol/L",
      3.4,
      5.4,
      "NORMAL",
      "",
      8,
      "WEEK 8",
      "TREATMENT",
      "2013-01-08T12:13",
      55
    ],
    [
      "CDISCPILOT01",
      "LB",
      "CDISC002",
      151,
      "LYM",
      "Lymphocytes",
      "HEMATOLOGY",
      "0.95",
      "10^9/L",
      "0.8",
      "3",
      "0.95",
      0.95,
      "10^9/L",
      0.8,
      3,
      "NORMAL",
      "",
      8,
      "WEEK 8",
      "TREATMENT",
      "2013-01-08T12:13",
      55
    ],
    [
      "CDISCPILOT01",
      "LB",
      "CDISC002",
      152,
      "MCH",
      "Ery. Mean Corpuscular Hemoglobin",
      "HEMATOLOGY",
      "31",
      "pg",
      "26",
      "34",
      "1.92386",
      1.92386,
      "fmol",
      1.6,
      2.1,
      "NORMAL",
      "",
      8,
      "WEEK 8",
      "TREATMENT",
      "2013-01-08T12:13",
      55
    ],
    [
      "CDISCPILOT01",
      "LB",
      "CDISC002",
      153,
      "MCHC",
      "Ery. Mean Corpuscular HGB Concentration",
      "HEMATOLOGY",
      "33",
      "g/dL",
      "31",
      "38",
      "20.4798",
      20.4798,
      "mmol/L",
      19,
      24,
      "NORMAL",
      "",
      8,
      "WEEK 8",
      "TREATMENT",
      "2013-01-08T12:13",
      55
    ],
    [
      "CDISCPILOT01",
      "LB",
      "CDISC002",
      154,
      "MCV",
      "Ery. Mean Corpuscular Volume",
      "HEMATOLOGY",
      "93",
      "fL",
      "80",
      "100",
      "93",
      93,
      "fL",
      80,
      100,
      "NORMAL",
      "",
      8,
      "WEEK 8",
      "TREATMENT",
      "2013-01-08T12:13",
      55
    ],
    [
      "CDISCPILOT01",
      "LB",
      "CDISC002",
      155,
      "MONO",
      "Monocytes",
      "HEMATOLOGY",
      "0.80",
      "10^9/L",
      "0.12",
      "0.92",
      "0.8",
      0.8,
      "10^9/L",
      0.12,
      0.92,
      "NORMAL",
      "",
      8,
      "WEEK 8",
      "TREATMENT",
      "2013-01-08T12:13",
      55
    ],
    [
      "CDISCPILOT01",
      "LB",
      "CDISC002",
      156,
      "SODIUM",
      "Sodium",
      "CHEMISTRY",
      "142",
      "mEq/L",
      "135",
      "145",
      "142",
      142,
      "mmol/L",
      135,
      145,
      "NORMAL",
      "",
      8,
      "WEEK 8",
      "TREATMENT",
      "2013-01-08T12:13",
      55
    ],
    [
      "CDISCPILOT01",
      "LB",
      "CDISC002",
      157,
      "PHOS",
      "Phosphate",
      "CHEMISTRY",
      "3.3",
      "mg/dL",
      "2.2",
      "5.1",
      "1.06557",
      1.06557,
      "mmol/L",
      0.71,
      1.65,
      "NORMAL",
      "",
      8,
      "WEEK 8",
      "TREATMENT",
      "2013-01-08T12:13",
      55
    ],
    [
      "CDISCPILOT01",
      "LB",
      "CDISC002",
      158,
      "PLAT",
      "Platelets",
      "HEMATOLOGY",
      "369",
      "10^9/L",
      "130",
      "394",
      "369",
      369,
      "10^9/L",
      130,
      394,
      "NORMAL",
      "",
      8,
      "WEEK 8",
      "TREATMENT",
      "2013-01-08T12:13",
      55
    ],
    [
      "CDISCPILOT01",
      "LB",
      "CDISC002",
      159,
      "PROT",
      "Protein",
      "CHEMISTRY",
      "7.1",
      "g/dL",
      "6",
      "8",
      "71",
      71,
      "g/L",
      60,
      80,
      "NORMAL",
      "",
      8,
      "WEEK 8",
      "TREATMENT",
      "2013-01-08T12:13",
      55
    ],
    [
      "CDISCPILOT01",
      "LB",
      "CDISC002",
      160,
      "RBC",
      "Erythrocytes",
      "HEMATOLOGY",
      "4.50",
      "10^12/L",
      "3.9",
      "5.5",
      "4.5",
      4.5,
      "10^12/L",
      3.9,
      5.5,
      "NORMAL",
      "",
      8,
      "WEEK 8",
      "TREATMENT",
      "2013-01-08T12:13",
      55
    ],
    [
      "CDISCPILOT01",
      "LB",
      "CDISC002",
      161,
      "URATE",
      "Urate",
      "CHEMISTRY",
      "4.0",
      "mg/dL",
      "2.5",
      "7.5",
      "237.92",
      237.92,
      "umol/L",
      149,
      446,
      "NORMAL",
      "",
      8,
      "WEEK 8",
      "TREATMENT",
      "2013-01-08T12:13",
      55
    ],
    [
      "CDISCPILOT01",
      "LB",
      "CDISC002",
      162,
      "WBC",
      "Leukocytes",
      "HEMATOLOGY",
      "8.29",
      "10^9/L",
      "3.8",
      "10.7",
      "8.29",
      8.29,
      "10^9/L",
      3.8,
      10.7,
      "NORMAL",
      "",
      8,
      "WEEK 8",
      "TREATMENT",
      "2013-01-08T12:13",
      55
    ],
    [
      "CDISCPILOT01",
      "LB",
      "CDISC003",
      1,
      "ALB",
      "Albumin",
      "CHEMISTRY",
      "4.3",
      "g/dL",
      "3.3",
      "4.9",
      "43",
      43,
      "g/L",
      33,
      49,
      "NORMAL",
      "Y",
      1,
      "SCREENING 1",
      "SCREENING",
      "2013-08-20T12:27",
      -9
    ],
    [
      "CDISCPILOT01",
      "LB",
      "CDISC003",
      2,
      "ALP",
      "Alkaline Phosphatase",
      "CHEMISTRY",
      "67",
      "U/L",
      "35",
      "115",
      "67",
      67,
      "U/L",
      35,
      115,
      "NORMAL",
      "Y",
      1,
      "SCREENING 1",
      "SCREENING",
      "2013-08-20T12:27",
      -9
    ],
    [
      "CDISCPILOT01",
      "LB",
      "CDISC003",
      3,
      "ALT",
      "Alanine Aminotransferase",
      "CHEMISTRY",
      "62",
      "U/L",
      "6",
      "43",
      "62",
      62,
      "U/L",
      6,
      43,
      "HIGH",
      "Y",
      1,
      "SCREENING 1",
      "SCREENING",
      "2013-08-20T12:27",
      -9
    ],
    [
      "CDISCPILOT01",
      "LB",
      "CDISC003",
      4,
      "AST",
      "Aspartate Aminotransferase",
      "CHEMISTRY",
      "52",
      "U/L",
      "11",
      "36",
      "52",
      52,
      "U/L",
      11,
      36,
      "HIGH",
      "Y",
      1,
      "SCREENING 1",
      "SCREENING",
      "2013-08-20T12:27",
      -9
    ],
    [
      "CDISCPILOT01",
      "LB",
      "CDISC003",
      5,
      "BASO",
      "Basophils",
      "HEMATOLOGY",
      "0.07",
      "10^9/L",
      "0",
      "0.2",
      "0.07",
      0.07,
      "10^9/L",
      0,
      0.2,
      "NORMAL",
      "Y",
      1,
      "SCREENING 1",
      "SCREENING",
      "2013-08-20T12:27",
      -9
    ],
    [
      "CDISCPILOT01",
      "LB",
      "CDISC003",
      6,
      "BILI",
      "Bilirubin",
      "CHEMISTRY",
      "0.6",
      "mg/dL",
      "0.2",
      "1.2",
      "10.26",
      10.26,
      "umol/L",
      3,
      21,
      "NORMAL",
      "Y",
      1,
      "SCREENING 1",
      "SCREENING",
      "2013-08-20T12:27",
      -9
    ],
    [
      "CDISCPILOT01",
      "LB",
      "CDISC003",
      7,
      "UREAN",
      "Urea Nitrogen",
      "CHEMISTRY",
      "13",
      "mg/dL",
      "4",
      "24",
      "4.641",
      4.641,
      "mmol/L",
      1.4,
      8.6,
      "NORMAL",
      "Y",
      1,
      "SCREENING 1",
      "SCREENING",
      "2013-08-20T12:27",
      -9
    ],
    [
      "CDISCPILOT01",
      "LB",
      "CDISC003",
      8,
      "CA",
      "Calcium",
      "CHEMISTRY",
      "9.6",
      "mg/dL",
      "8.4",
      "10.3",
      "2.3952",
      2.3952,
      "mmol/L",
      2.1,
      2.57,
      "NORMAL",
      "Y",
      1,
      "SCREENING 1",
      "SCREENING",
      "2013-08-20T12:27",
      -9
    ],
    [
      "CDISCPILOT01",
      "LB",
      "CDISC003",
      9,
      "CHOL",
      "Cholesterol",
      "CHEMISTRY",
      "255",
      "mg/dL",
      "149",
      "286",
      "6.5943",
      6.5943,
      "mmol/L",
      3.85,
      7.4,
      "NORMAL",
      "Y",
      1,
      "SCREENING 1",
      "SCREENING",
      "2013-08-20T12:27",
      -9
    ],
    [
      "CDISCPILOT01",
      "LB",
      "CDISC003",
      10,
      "CK",
      "Creatine Kinase",
      "CHEMISTRY",
      "444",
      "U/L",
      "22",
      "198",
      "444",
      444,
      "U/L",
      22,
      198,
      "HIGH",
      "Y",
      1,
      "SCREENING 1",
      "SCREENING",
      "2013-08-20T12:27",
      -9
    ],
    [
      "CDISCPILOT01",
      "LB",
      "CDISC003",
      11,
      "CL",
      "Chloride",
      "CHEMISTRY",
      "111",
      "mEq/L",
      "94",
      "112",
      "111",
      111,
      "mmol/L",
      94,
      112,
      "NORMAL",
      "Y",
      1,
      "SCREENING 1",
      "SCREENING",
      "2013-08-20T12:27",
      -9
    ],
    [
      "CDISCPILOT01",
      "LB",
      "CDISC003",
      12,
      "COLOR",
      "Color",
      "URINALYSIS",
      "NORMAL",
      "",
      "",
      "",
      "NORMAL",
      null,
      "",
      null,
      null,
      "NORMAL",
      "Y",
      1,
      "SCREENING 1",
      "SCREENING",
      "2013-08-20T12:27",
      -9
    ],
    [
      "CDISCPILOT01",
      "LB",
      "CDISC003",
      13,
      "CREAT",
      "Creatinine",
      "CHEMISTRY",
      "1.3",
      "mg/dL",
      "0.8",
      "1.6",
      "114.92",
      114.92,
      "umol/L",
      71,
      141,
      "NORMAL",
      "Y",
      1,
      "SCREENING 1",
      "SCREENING",
      "2013-08-20T12:27",
      -9
    ],
    [
      "CDISCPILOT01",
      "LB",
      "CDISC003",
      14,
      "EOS",
      "Eosinophils",
      "HEMATOLOGY",
      "0.30",
      "10^9/L",
      "0",
      "0.57",
      "0.3",
      0.3,
      "10^9/L",
      0,
      0.57,
      "NORMAL",
      "Y",
      1,
      "SCREENING 1",
      "SCREENING",
      "2013-08-20T12:27",
      -9
    ],
    [
      "CDISCPILOT01",
      "LB",
      "CDISC003",
      15,
      "GGT",
      "Gamma Glutamyl Transferase",
      "CHEMISTRY",
      "17",
      "U/L",
      "10",
      "50",
      "17",
      17,
      "U/L",
      10,
      50,
      "NORMAL",
      "Y",
      1,
      "SCREENING 1",
      "SCREENING",
      "2013-08-20T12:27",
      -9
    ],
    [
      "CDISCPILOT01",
      "LB",
      "CDISC003",
      16,
      "GLUC",
      "Glucose",
      "CHEMISTRY",
      "85",
      "mg/dL",
      "50",
      "250",
      "4.71835",
      4.71835,
      "mmol/L",
      2.8,
      13.9,
      "NORMAL",
      "Y",
      1,
      "SCREENING 1",
      "SCREENING",
      "2013-08-20T12:27",
      -9
    ],
    [
      "CDISCPILOT01",
      "LB",
      "CDISC003",
      17,
      "HCT",
      "Hematocrit",
      "HEMATOLOGY",
      "44.0",
      "%",
      "37",
      "51",
      "0.44",
      0.44,
      "",
      0.37,
      0.51,
      "NORMAL",
      "Y",
      1,
      "SCREENING 1",
      "SCREENING",
      "2013-08-20T12:27",
      -9
    ],
    [
      "CDISCPILOT01",
      "LB",
      "CDISC003",
      18,
      "HGB",
      "Hemoglobin",
      "HEMATOLOGY",
      "14.6",
      "g/dL",
      "12.5",
      "17",
      "9.06076",
      9.06076,
      "mmol/L",
      7.76,
      10.55,
      "NORMAL",
      "Y",
      1,
      "SCREENING 1",
      "SCREENING",
      "2013-08-20T12:27",
      -9
    ],
    [
      "CDISCPILOT01",
      "LB",
      "CDISC003",
      19,
      "K",
      "Potassium",
      "CHEMISTRY",
      "4.3",
      "mEq/L",
      "3.4",
      "5.4",
      "4.3",
      4.3,
      "mmol/L",
      3.4,
      5.4,
      "NORMAL",
      "Y",
      1,
      "SCREENING 1",
      "SCREENING",
      "2013-08-20T12:27",
      -9
    ],
    [
      "CDISCPILOT01",
      "LB",
      "CDISC003",
      20,
      "KETONES",
      "Ketones",
      "URINALYSIS",
      "0",
      "",
      "",
      "",
      "0",
      0,
      "",
      null,
      null,
      "NORMAL",
      "Y",
      1,
      "SCREENING 1",
      "SCREENING",
      "2013-08-20T12:27",
      -9
    ],
    [
      "CDISCPILOT01",
      "LB",
      "CDISC003",
      21,
      "LYM",
      "Lymphocytes",
      "HEMATOLOGY",
      "1.48",
      "10^9/L",
      "0.8",
      "3",
      "1.48",
      1.48,
      "10^9/L",
      0.8,
      3,
      "NORMAL",
      "Y",
      1,
      "SCREENING 1",
      "SCREENING",
      "2013-08-20T12:27",
      -9
    ],
    [
      "CDISCPILOT01",
      "LB",
      "CDISC003",
      22,
      "MCH",
      "Ery. Mean Corpuscular Hemoglobin",
      "HEMATOLOGY",
      "31",
      "pg",
      "26",
      "34",
      "1.92386",
      1.92386,
      "fmol",
      1.6,
      2.1,
      "NORMAL",
      "Y",
      1,
      "SCREENING 1",
      "SCREENING",
      "2013-08-20T12:27",
      -9
    ],
    [
      "CDISCPILOT01",
      "LB",
      "CDISC003",
      23,
      "MCHC",
      "Ery. Mean Corpuscular HGB Concentration",
      "HEMATOLOGY",
      "33",
      "g/dL",
      "31",
      "38",
      "20.4798",
      20.4798,
      "mmol/L",
      19,
      24,
      "NORMAL",
      "Y",
      1,
      "SCREENING 1",
      "SCREENING",
      "2013-08-20T12:27",
      -9
    ],
    [
      "CDISCPILOT01",
      "LB",
      "CDISC003",
      24,
      "MCV",
      "Ery. Mean Corpuscular Volume",
      "HEMATOLOGY",
      "92",
      "fL",
      "80",
      "100",
      "92",
      92,
      "fL",
      80,
      100,
      "NORMAL",
      "Y",
      1,
      "SCREENING 1",
      "SCREENING",
      "2013-08-20T12:27",
      -9
    ],
    [
      "CDISCPILOT01",
      "LB",
      "CDISC003",
      25,
      "MONO",
      "Monocytes",
      "HEMATOLOGY",
      "0.45",
      "10^9/L",
      "0.12",
      "0.92",
      "0.45",
      0.45,
      "10^9/L",
      0.12,
      0.92,
      "NORMAL",
      "Y",
      1,
      "SCREENING 1",
      "SCREENING",
      "2013-08-20T12:27",
      -9
    ],
    [
      "CDISCPILOT01",
      "LB",
      "CDISC003",
      26,
      "SODIUM",
      "Sodium",
      "CHEMISTRY",
      "140",
      "mEq/L",
      "135",
      "145",
      "140",
      140,
      "mmol/L",
      135,
      145,
      "NORMAL",
      "Y",
      1,
      "SCREENING 1",
      "SCREENING",
      "2013-08-20T12:27",
      -9
    ],
    [
      "CDISCPILOT01",
      "LB",
      "CDISC003",
      27,
      "PH",
      "pH",
      "URINALYSIS",
      "5",
      "",
      "5",
      "8",
      "5",
      5,
      "",
      5,
      8,
      "NORMAL",
      "Y",
      1,
      "SCREENING 1",
      "SCREENING",
      "2013-08-20T12:27",
      -9
    ],
    [
      "CDISCPILOT01",
      "LB",
      "CDISC003",
      28,
      "PHOS",
      "Phosphate",
      "CHEMISTRY",
      "3.6",
      "mg/dL",
      "2.2",
      "5.1",
      "1.16244",
      1.16244,
      "mmol/L",
      0.71,
      1.65,
      "NORMAL",
      "Y",
      1,
      "SCREENING 1",
      "SCREENING",
      "2013-08-20T12:27",
      -9
    ],
    [
      "CDISCPILOT01",
      "LB",
      "CDISC003",
      29,
      "PLAT",
      "Platelets",
      "HEMATOLOGY",
      "220",
      "10^9/L",
      "130",
      "394",
      "220",
      220,
      "10^9/L",
      130,
      394,
      "NORMAL",
      "Y",
      1,
      "SCREENING 1",
      "SCREENING",
      "2013-08-20T12:27",
      -9
    ],
    [
      "CDISCPILOT01",
      "LB",
      "CDISC003",
      30,
      "PROT",
      "Protein",
      "CHEMISTRY",
      "7.9",
      "g/dL",
      "6",
      "8",
      "79",
      79,
      "g/L",
      60,
      80,
      "NORMAL",
      "Y",
      1,
      "SCREENING 1",
      "SCREENING",
      "2013-08-20T12:27",
      -9
    ],
    [
      "CDISCPILOT01",
      "LB",
      "CDISC003",
      31,
      "RBC",
      "Erythrocytes",
      "HEMATOLOGY",
      "4.80",
      "10^12/L",
      "4",
      "5.8",
      "4.8",
      4.8,
      "10^12/L",
      4,
      5.8,
      "NORMAL",
      "Y",
      1,
      "SCREENING 1",
      "SCREENING",
      "2013-08-20T12:27",
      -9
    ],
    [
      "CDISCPILOT01",
      "LB",
      "CDISC003",
      32,
      "SPGRAV",
      "Specific Gravity",
      "URINALYSIS",
      "1.021",
      "",
      "1.006",
      "1.03",
      "1.021",
      1.021,
      "",
      1.006,
      1.03,
      "NORMAL",
      "Y",
      1,
      "SCREENING 1",
      "SCREENING",
      "2013-08-20T12:27",
      -9
    ],
    [
      "CDISCPILOT01",
      "LB",
      "CDISC003",
      33,
      "TSH",
      "Thyrotropin",
      "OTHER",
      "1.89",
      "mIU/L",
      ".32",
      "5",
      "1.89",
      1.89,
      "mU/L",
      0.32,
      5,
      "NORMAL",
      "Y",
      1,
      "SCREENING 1",
      "SCREENING",
      "2013-08-20T12:27",
      -9
    ],
    [
      "CDISCPILOT01",
      "LB",
      "CDISC003",
      34,
      "URATE",
      "Urate",
      "CHEMISTRY",
      "3.6",
      "mg/dL",
      "2.5",
      "7.5",
      "214.128",
      214.128,
      "umol/L",
      149,
      446,
      "NORMAL",
      "Y",
      1,
      "SCREENING 1",
      "SCREENING",
      "2013-08-20T12:27",
      -9
    ],
    [
      "CDISCPILOT01",
      "LB",
      "CDISC003",
      35,
      "UROBIL",
      "Urobilinogen",
      "URINALYSIS",
      "0",
      "",
      "",
      "",
      "0",
      0,
      "",
      null,
      null,
      "NORMAL",
      "Y",
      1,
      "SCREENING 1",
      "SCREENING",
      "2013-08-20T12:27",
      -9
    ],
    [
      "CDISCPILOT01",
      "LB",
      "CDISC003",
      36,
      "VITB12",
      "Vitamin B12",
      "OTHER",
      "714",
      "ng/L",
      "200",
      "900",
      "526.7892",
      526.7892,
      "pmol/L",
      148,
      664,
      "NORMAL",
      "Y",
      1,
      "SCREENING 1",
      "SCREENING",
      "2013-08-20T12:27",
      -9
    ],
    [
      "CDISCPILOT01",
      "LB",
      "CDISC003",
      37,
      "WBC",
      "Leukocytes",
      "HEMATOLOGY",
      "4.87",
      "10^9/L",
      "3.8",
      "10.7",
      "4.87",
      4.87,
      "10^9/L",
      3.8,
      10.7,
      "NORMAL",
      "Y",
      1,
      "SCREENING 1",
      "SCREENING",
      "2013-08-20T12:27",
      -9
    ],
    [
      "CDISCPILOT01",
      "LB",
      "CDISC003",
      38,
      "ALB",
      "Albumin",
      "CHEMISTRY",
      "3.6",
      "g/dL",
      "3.3",
      "4.9",
      "36",
      36,
      "g/L",
      33,
      49,
      "NORMAL",
      "",
      4,
      "WEEK 2",
      "TREATMENT",
      "2013-09-15T12:44",
      18
    ],
    [
      "CDISCPILOT01",
      "LB",
      "CDISC003",
      39,
      "ALP",
      "Alkaline Phosphatase",
      "CHEMISTRY",
      "61",
      "U/L",
      "35",
      "115",
      "61",
      61,
      "U/L",
      35,
      115,
      "NORMAL",
      "",
      4,
      "WEEK 2",
      "TREATMENT",
      "2013-09-15T12:44",
      18
    ],
    [
      "CDISCPILOT01",
      "LB",
      "CDISC003",
      40,
      "ALT",
      "Alanine Aminotransferase",
      "CHEMISTRY",
      "31",
      "U/L",
      "6",
      "43",
      "31",
      31,
      "U/L",
      6,
      43,
      "NORMAL",
      "",
      4,
      "WEEK 2",
      "TREATMENT",
      "2013-09-15T12:44",
      18
    ],
    [
      "CDISCPILOT01",
      "LB",
      "CDISC003",
      41,
      "AST",
      "Aspartate Aminotransferase",
      "CHEMISTRY",
      "30",
      "U/L",
      "11",
      "36",
      "30",
      30,
      "U/L",
      11,
      36,
      "NORMAL",
      "",
      4,
      "WEEK 2",
      "TREATMENT",
      "2013-09-15T12:44",
      18
    ],
    [
      "CDISCPILOT01",
      "LB",
      "CDISC003",
      42,
      "BASO",
      "Basophils",
      "HEMATOLOGY",
      "0.05",
      "10^9/L",
      "0",
      "0.2",
      "0.05",
      0.05,
      "10^9/L",
      0,
      0.2,
      "NORMAL",
      "",
      4,
      "WEEK 2",
      "TREATMENT",
      "2013-09-15T12:44",
      18
    ],
    [
      "CDISCPILOT01",
      "LB",
      "CDISC003",
      43,
      "BILI",
      "Bilirubin",
      "CHEMISTRY",
      "0.4",
      "mg/dL",
      "0.2",
      "1.2",
      "6.84",
      6.84,
      "umol/L",
      3,
      21,
      "NORMAL",
      "",
      4,
      "WEEK 2",
      "TREATMENT",
      "2013-09-15T12:44",
      18
    ],
    [
      "CDISCPILOT01",
      "LB",
      "CDISC003",
      44,
      "UREAN",
      "Urea Nitrogen",
      "CHEMISTRY",
      "11",
      "mg/dL",
      "4",
      "24",
      "3.927",
      3.927,
      "mmol/L",
      1.4,
      8.6,
      "NORMAL",
      "",
      4,
      "WEEK 2",
      "TREATMENT",
      "2013-09-15T12:44",
      18
    ],
    [
      "CDISCPILOT01",
      "LB",
      "CDISC003",
      45,
      "CA",
      "Calcium",
      "CHEMISTRY",
      "8.7",
      "mg/dL",
      "8.4",
      "10.3",
      "2.17065",
      2.17065,
      "mmol/L",
      2.1,
      2.57,
      "NORMAL",
      "",
      4,
      "WEEK 2",
      "TREATMENT",
      "2013-09-15T12:44",
      18
    ],
    [
      "CDISCPILOT01",
      "LB",
      "CDISC003",
      46,
      "CHOL",
      "Cholesterol",
      "CHEMISTRY",
      "225",
      "mg/dL",
      "149",
      "286",
      "5.8185",
      5.8185,
      "mmol/L",
      3.85,
      7.4,
      "NORMAL",
      "",
      4,
      "WEEK 2",
      "TREATMENT",
      "2013-09-15T12:44",
      18
    ],
    [
      "CDISCPILOT01",
      "LB",
      "CDISC003",
      47,
      "CK",
      "Creatine Kinase",
      "CHEMISTRY",
      "100",
      "U/L",
      "22",
      "198",
      "100",
      100,
      "U/L",
      22,
      198,
      "NORMAL",
      "",
      4,
      "WEEK 2",
      "TREATMENT",
      "2013-09-15T12:44",
      18
    ],
    [
      "CDISCPILOT01",
      "LB",
      "CDISC003",
      48,
      "CL",
      "Chloride",
      "CHEMISTRY",
      "108",
      "mEq/L",
      "94",
      "112",
      "108",
      108,
      "mmol/L",
      94,
      112,
      "NORMAL",
      "",
      4,
      "WEEK 2",
      "TREATMENT",
      "2013-09-15T12:44",
      18
    ],
    [
      "CDISCPILOT01",
      "LB",
      "CDISC003",
      49,
      "COLOR",
      "Color",
      "URINALYSIS",
      "NORMAL",
      "",
      "",
      "",
      "NORMAL",
      null,
      "",
      null,
      null,
      "NORMAL",
      "",
      4,
      "WEEK 2",
      "TREATMENT",
      "2013-09-15T12:44",
      18
    ],
    [
      "CDISCPILOT01",
      "LB",
      "CDISC003",
      50,
      "CREAT",
      "Creatinine",
      "CHEMISTRY",
      "1.1",
      "mg/dL",
      "0.8",
      "1.6",
      "97.24",
      97.24,
      "umol/L",
      71,
      141,
      "NORMAL",
      "",
      4,
      "WEEK 2",
      "TREATMENT",
      "2013-09-15T12:44",
      18
    ],
    [
      "CDISCPILOT01",
      "LB",
      "CDISC003",
      51,
      "EOS",
      "Eosinophils",
      "HEMATOLOGY",
      "0.19",
      "10^9/L",
      "0",
      "0.57",
      "0.19",
      0.19,
      "10^9/L",
      0,
      0.57,
      "NORMAL",
      "",
      4,
      "WEEK 2",
      "TREATMENT",
      "2013-09-15T12:44",
      18
    ],
    [
      "CDISCPILOT01",
      "LB",
      "CDISC003",
      52,
      "GGT",
      "Gamma Glutamyl Transferase",
      "CHEMISTRY",
      "12",
      "U/L",
      "10",
      "50",
      "12",
      12,
      "U/L",
      10,
      50,
      "NORMAL",
      "",
      4,
      "WEEK 2",
      "TREATMENT",
      "2013-09-15T12:44",
      18
    ],
    [
      "CDISCPILOT01",
      "LB",
      "CDISC003",
      53,
      "GLUC",
      "Glucose",
      "CHEMISTRY",
      "88",
      "mg/dL",
      "50",
      "250",
      "4.88488",
      4.88488,
      "mmol/L",
      2.8,
      13.9,
      "NORMAL",
      "",
      4,
      "WEEK 2",
      "TREATMENT",
      "2013-09-15T12:44",
      18
    ],
    [
      "CDISCPILOT01",
      "LB",
      "CDISC003",
      54,
      "HCT",
      "Hematocrit",
      "HEMATOLOGY",
      "39.0",
      "%",
      "37",
      "51",
      "0.39",
      0.39,
      "",
      0.37,
      0.51,
      "NORMAL",
      "",
      4,
      "WEEK 2",
      "TREATMENT",
      "2013-09-15T12:44",
      18
    ],
    [
      "CDISCPILOT01",
      "LB",
      "CDISC003",
      55,
      "HGB",
      "Hemoglobin",
      "HEMATOLOGY",
      "13.2",
      "g/dL",
      "12.5",
      "17",
      "8.19192",
      8.19192,
      "mmol/L",
      7.76,
      10.55,
      "NORMAL",
      "",
      4,
      "WEEK 2",
      "TREATMENT",
      "2013-09-15T12:44",
      18
    ],
    [
      "CDISCPILOT01",
      "LB",
      "CDISC003",
      56,
      "K",
      "Potassium",
      "CHEMISTRY",
      "3.8",
      "mEq/L",
      "3.4",
      "5.4",
      "3.8",
      3.8,
      "mmol/L",
      3.4,
      5.4,
      "NORMAL",
      "",
      4,
      "WEEK 2",
      "TREATMENT",
      "2013-09-15T12:44",
      18
    ],
    [
      "CDISCPILOT01",
      "LB",
      "CDISC003",
      57,
      "KETONES",
      "Ketones",
      "URINALYSIS",
      "0",
      "",
      "",
      "",
      "0",
      0,
      "",
      null,
      null,
      "NORMAL",
      "",
      4,
      "WEEK 2",
      "TREATMENT",
      "2013-09-15T12:44",
      18
    ],
    [
      "CDISCPILOT01",
      "LB",
      "CDISC003",
      58,
      "LYM",
      "Lymphocytes",
      "HEMATOLOGY",
      "1.31",
      "10^9/L",
      "0.8",
      "3",
      "1.31",
      1.31,
      "10^9/L",
      0.8,
      3,
      "NORMAL",
      "",
      4,
      "WEEK 2",
      "TREATMENT",
      "2013-09-15T12:44",
      18
    ],
    [
      "CDISCPILOT01",
      "LB",
      "CDISC003",
      59,
      "MCH",
      "Ery. Mean Corpuscular Hemoglobin",
      "HEMATOLOGY",
      "32",
      "pg",
      "26",
      "34",
      "1.98592",
      1.98592,
      "fmol",
      1.6,
      2.1,
      "NORMAL",
      "",
      4,
      "WEEK 2",
      "TREATMENT",
      "2013-09-15T12:44",
      18
    ],
    [
      "CDISCPILOT01",
      "LB",
      "CDISC003",
      60,
      "MCHC",
      "Ery. Mean Corpuscular HGB Concentration",
      "HEMATOLOGY",
      "34",
      "g/dL",
      "31",
      "38",
      "21.1004",
      21.1004,
      "mmol/L",
      19,
      24,
      "NORMAL",
      "",
      4,
      "WEEK 2",
      "TREATMENT",
      "2013-09-15T12:44",
      18
    ],
    [
      "CDISCPILOT01",
      "LB",
      "CDISC003",
      61,
      "MCV",
      "Ery. Mean Corpuscular Volume",
      "HEMATOLOGY",
      "93",
      "fL",
      "80",
      "100",
      "93",
      93,
      "fL",
      80,
      100,
      "NORMAL",
      "",
      4,
      "WEEK 2",
      "TREATMENT",
      "2013-09-15T12:44",
      18
    ],
    [
      "CDISCPILOT01",
      "LB",
      "CDISC003",
      62,
      "MONO",
      "Monocytes",
      "HEMATOLOGY",
      "0.32",
      "10^9/L",
      "0.12",
      "0.92",
      "0.32",
      0.32,
      "10^9/L",
      0.12,
      0.92,
      "NORMAL",
      "",
      4,
      "WEEK 2",
      "TREATMENT",
      "2013-09-15T12:44",
      18
    ],
    [
      "CDISCPILOT01",
      "LB",
      "CDISC003",
      63,
      "SODIUM",
      "Sodium",
      "CHEMISTRY",
      "140",
      "mEq/L",
      "135",
      "145",
      "140",
      140,
      "mmol/L",
      135,
      145,
      "NORMAL",
      "",
      4,
      "WEEK 2",
      "TREATMENT",
      "2013-09-15T12:44",
      18
    ],
    [
      "CDISCPILOT01",
      "LB",
      "CDISC003",
      64,
      "PH",
      "pH",
      "URINALYSIS",
      "5",
      "",
      "5",
      "8",
      "5",
      5,
      "",
      5,
      8,
      "NORMAL",
      "",
      4,
      "WEEK 2",
      "TREATMENT",
      "2013-09-15T12:44",
      18
    ],
    [
      "CDISCPILOT01",
      "LB",
      "CDISC003",
      65,
      "PHOS",
      "Phosphate",
      "CHEMISTRY",
      "2.8",
      "mg/dL",
      "2.2",
      "5.1",
      "0.90412",
      0.90412,
      "mmol/L",
      0.71,
      1.65,
      "NORMAL",
      "",
      4,
      "WEEK 2",
      "TREATMENT",
      "2013-09-15T12:44",
      18
    ],
    [
      "CDISCPILOT01",
      "LB",
      "CDISC003",
      66,
      "PLAT",
      "Platelets",
      "HEMATOLOGY",
      "230",
      "10^9/L",
      "130",
      "394",
      "230",
      230,
      "10^9/L",
      130,
      394,
      "NORMAL",
      "",
      4,
      "WEEK 2",
      "TREATMENT",
      "2013-09-15T12:44",
      18
    ],
    [
      "CDISCPILOT01",
      "LB",
      "CDISC003",
      67,
      "PROT",
      "Protein",
      "CHEMISTRY",
      "6.8",
      "g/dL",
      "6",
      "8",
      "68",
      68,
      "g/L",
      60,
      80,
      "NORMAL",
      "",
      4,
      "WEEK 2",
      "TREATMENT",
      "2013-09-15T12:44",
      18
    ],
    [
      "CDISCPILOT01",
      "LB",
      "CDISC003",
      68,
      "RBC",
      "Erythrocytes",
      "HEMATOLOGY",
      "4.20",
      "10^12/L",
      "4",
      "5.8",
      "4.2",
      4.2,
      "10^12/L",
      4,
      5.8,
      "NORMAL",
      "",
      4,
      "WEEK 2",
      "TREATMENT",
      "2013-09-15T12:44",
      18
    ],
    [
      "CDISCPILOT01",
      "LB",
      "CDISC003",
      69,
      "SPGRAV",
      "Specific Gravity",
      "URINALYSIS",
      "1.021",
      "",
      "1.006",
      "1.03",
      "1.021",
      1.021,
      "",
      1.006,
      1.03,
      "NORMAL",
      "",
      4,
      "WEEK 2",
      "TREATMENT",
      "2013-09-15T12:44",
      18
    ],
    [
      "CDISCPILOT01",
      "LB",
      "CDISC003",
      70,
      "URATE",
      "Urate",
      "CHEMISTRY",
      "3.6",
      "mg/dL",
      "2.5",
      "7.5",
      "214.128",
      214.128,
      "umol/L",
      149,
      446,
      "NORMAL",
      "",
      4,
      "WEEK 2",
      "TREATMENT",
      "2013-09-15T12:44",
      18
    ],
    [
      "CDISCPILOT01",
      "LB",
      "CDISC003",
      71,
      "UROBIL",
      "Urobilinogen",
      "URINALYSIS",
      "0",
      "",
      "",
      "",
      "0",
      0,
      "",
      null,
      null,
      "NORMAL",
      "",
      4,
      "WEEK 2",
      "TREATMENT",
      "2013-09-15T12:44",
      18
    ],
    [
      "CDISCPILOT01",
      "LB",
      "CDISC003",
      72,
      "WBC",
      "Leukocytes",
      "HEMATOLOGY",
      "4.59",
      "10^9/L",
      "3.8",
      "10.7",
      "4.59",
      4.59,
      "10^9/L",
      3.8,
      10.7,
      "NORMAL",
      "",
      4,
      "WEEK 2",
      "TREATMENT",
      "2013-09-15T12:44",
      18
    ],
    [
      "CDISCPILOT01",
      "LB",
      "CDISC003",
      73,
      "ALB",
      "Albumin",
      "CHEMISTRY",
      "4.0",
      "g/dL",
      "3.3",
      "4.9",
      "40",
      40,
      "g/L",
      33,
      49,
      "NORMAL",
      "",
      5,
      "WEEK 4",
      "TREATMENT",
      "2013-09-24T08:16",
      27
    ],
    [
      "CDISCPILOT01",
      "LB",
      "CDISC003",
      74,
      "ALP",
      "Alkaline Phosphatase",
      "CHEMISTRY",
      "75",
      "U/L",
      "35",
      "115",
      "75",
      75,
      "U/L",
      35,
      115,
      "NORMAL",
      "",
      5,
      "WEEK 4",
      "TREATMENT",
      "2013-09-24T08:16",
      27
    ],
    [
      "CDISCPILOT01",
      "LB",
      "CDISC003",
      75,
      "ALT",
      "Alanine Aminotransferase",
      "CHEMISTRY",
      "34",
      "U/L",
      "6",
      "43",
      "34",
      34,
      "U/L",
      6,
      43,
      "NORMAL",
      "",
      5,
      "WEEK 4",
      "TREATMENT",
      "2013-09-24T08:16",
      27
    ],
    [
      "CDISCPILOT01",
      "LB",
      "CDISC003",
      76,
      "AST",
      "Aspartate Aminotransferase",
      "CHEMISTRY",
      "30",
      "U/L",
      "11",
      "36",
      "30",
      30,
      "U/L",
      11,
      36,
      "NORMAL",
      "",
      5,
      "WEEK 4",
      "TREATMENT",
      "2013-09-24T08:16",
      27
    ],
    [
      "CDISCPILOT01",
      "LB",
      "CDISC003",
      77,
      "BASO",
      "Basophils",
      "HEMATOLOGY",
      "0.06",
      "10^9/L",
      "0",
      "0.2",
      "0.06",
      0.06,
      "10^9/L",
      0,
      0.2,
      "NORMAL",
      "",
      5,
      "WEEK 4",
      "TREATMENT",
      "2013-09-24T08:16",
      27
    ],
    [
      "CDISCPILOT01",
      "LB",
      "CDISC003",
      78,
      "BILI",
      "Bilirubin",
      "CHEMISTRY",
      "0.5",
      "mg/dL",
      "0.2",
      "1.2",
      "8.55",
      8.55,
      "umol/L",
      3,
      21,
      "NORMAL",
      "",
      5,
      "WEEK 4",
      "TREATMENT",
      "2013-09-24T08:16",
      27
    ],
    [
      "CDISCPILOT01",
      "LB",
      "CDISC003",
      79,
      "UREAN",
      "Urea Nitrogen",
      "CHEMISTRY",
      "12",
      "mg/dL",
      "4",
      "24",
      "4.284",
      4.284,
      "mmol/L",
      1.4,
      8.6,
      "NORMAL",
      "",
      5,
      "WEEK 4",
      "TREATMENT",
      "2013-09-24T08:16",
      27
    ],
    [
      "CDISCPILOT01",
      "LB",
      "CDISC003",
      80,
      "CA",
      "Calcium",
      "CHEMISTRY",
      "8.7",
      "mg/dL",
      "8.4",
      "10.3",
      "2.17065",
      2.17065,
      "mmol/L",
      2.1,
      2.57,
      "NORMAL",
      "",
      5,
      "WEEK 4",
      "TREATMENT",
      "2013-09-24T08:16",
      27
    ],
    [
      "CDISCPILOT01",
      "LB",
      "CDISC003",
      81,
      "CHOL",
      "Cholesterol",
      "CHEMISTRY",
      "239",
      "mg/dL",
      "149",
      "286",
      "6.18054",
      6.18054,
      "mmol/L",
      3.85,
      7.4,
      "NORMAL",
      "",
      5,
      "WEEK 4",
      "TREATMENT",
      "2013-09-24T08:16",
      27
    ],
    [
      "CDISCPILOT01",
      "LB",
      "CDISC003",
      82,
      "CK",
      "Creatine Kinase",
      "CHEMISTRY",
      "123",
      "U/L",
      "22",
      "198",
      "123",
      123,
      "U/L",
      22,
      198,
      "NORMAL",
      "",
      5,
      "WEEK 4",
      "TREATMENT",
      "2013-09-24T08:16",
      27
    ],
    [
      "CDISCPILOT01",
      "LB",
      "CDISC003",
      83,
      "CL",
      "Chloride",
      "CHEMISTRY",
      "109",
      "mEq/L",
      "94",
      "112",
      "109",
      109,
      "mmol/L",
      94,
      112,
      "NORMAL",
      "",
      5,
      "WEEK 4",
      "TREATMENT",
      "2013-09-24T08:16",
      27
    ],
    [
      "CDISCPILOT01",
      "LB",
      "CDISC003",
      84,
      "CREAT",
      "Creatinine",
      "CHEMISTRY",
      "1.2",
      "mg/dL",
      "0.8",
      "1.6",
      "106.08",
      106.08,
      "umol/L",
      71,
      141,
      "NORMAL",
      "",
      5,
      "WEEK 4",
      "TREATMENT",
      "2013-09-24T08:16",
      27
    ],
    [
      "CDISCPILOT01",
      "LB",
      "CDISC003",
      85,
      "EOS",
      "Eosinophils",
      "HEMATOLOGY",
      "0.32",
      "10^9/L",
      "0",
      "0.57",
      "0.32",
      0.32,
      "10^9/L",
      0,
      0.57,
      "NORMAL",
      "",
      5,
      "WEEK 4",
      "TREATMENT",
      "2013-09-24T08:16",
      27
    ],
    [
      "CDISCPILOT01",
      "LB",
      "CDISC003",
      86,
      "GGT",
      "Gamma Glutamyl Transferase",
      "CHEMISTRY",
      "17",
      "U/L",
      "10",
      "50",
      "17",
      17,
      "U/L",
      10,
      50,
      "NORMAL",
      "",
      5,
      "WEEK 4",
      "TREATMENT",
      "2013-09-24T08:16",
      27
    ],
    [
      "CDISCPILOT01",
      "LB",
      "CDISC003",
      87,
      "GLUC",
      "Glucose",
      "CHEMISTRY",
      "102",
      "mg/dL",
      "50",
      "250",
      "5.66202",
      5.66202,
      "mmol/L",
      2.8,
      13.9,
      "NORMAL",
      "",
      5,
      "WEEK 4",
      "TREATMENT",
      "2013-09-24T08:16",
      27
    ],
    [
      "CDISCPILOT01",
      "LB",
      "CDISC003",
      88,
      "HCT",
      "Hematocrit",
      "HEMATOLOGY",
      "41.0",
      "%",
      "37",
      "51",
      "0.41",
      0.41,
      "",
      0.37,
      0.51,
      "NORMAL",
      "",
      5,
      "WEEK 4",
      "TREATMENT",
      "2013-09-24T08:16",
      27
    ],
    [
      "CDISCPILOT01",
      "LB",
      "CDISC003",
      89,
      "HGB",
      "Hemoglobin",
      "HEMATOLOGY",
      "13.8",
      "g/dL",
      "12.5",
      "17",
      "8.56428",
      8.56428,
      "mmol/L",
      7.76,
      10.55,
      "NORMAL",
      "",
      5,
      "WEEK 4",
      "TREATMENT",
      "2013-09-24T08:16",
      27
    ],
    [
      "CDISCPILOT01",
      "LB",
      "CDISC003",
      90,
      "K",
      "Potassium",
      "CHEMISTRY",
      "4.1",
      "mEq/L",
      "3.4",
      "5.4",
      "4.1",
      4.1,
      "mmol/L",
      3.4,
      5.4,
      "NORMAL",
      "",
      5,
      "WEEK 4",
      "TREATMENT",
      "2013-09-24T08:16",
      27
    ],
    [
      "CDISCPILOT01",
      "LB",
      "CDISC003",
      91,
      "LYM",
      "Lymphocytes",
      "HEMATOLOGY",
      "1.25",
      "10^9/L",
      "0.8",
      "3",
      "1.25",
      1.25,
      "10^9/L",
      0.8,
      3,
      "NORMAL",
      "",
      5,
      "WEEK 4",
      "TREATMENT",
      "2013-09-24T08:16",
      27
    ],
    [
      "CDISCPILOT01",
      "LB",
      "CDISC003",
      92,
      "MCH",
      "Ery. Mean Corpuscular Hemoglobin",
      "HEMATOLOGY",
      "31",
      "pg",
      "26",
      "34",
      "1.92386",
      1.92386,
      "fmol",
      1.6,
      2.1,
      "NORMAL",
      "",
      5,
      "WEEK 4",
      "TREATMENT",
      "2013-09-24T08:16",
      27
    ],
    [
      "CDISCPILOT01",
      "LB",
      "CDISC003",
      93,
      "MCHC",
      "Ery. Mean Corpuscular HGB Concentration",
      "HEMATOLOGY",
      "34",
      "g/dL",
      "31",
      "38",
      "21.1004",
      21.1004,
      "mmol/L",
      19,
      24,
      "NORMAL",
      "",
      5,
      "WEEK 4",
      "TREATMENT",
      "2013-09-24T08:16",
      27
    ],
    [
      "CDISCPILOT01",
      "LB",
      "CDISC003",
      94,
      "MCV",
      "Ery. Mean Corpuscular Volume",
      "HEMATOLOGY",
      "93",
      "fL",
      "80",
      "100",
      "93",
      93,
      "fL",
      80,
      100,
      "NORMAL",
      "",
      5,
      "WEEK 4",
      "TREATMENT",
      "2013-09-24T08:16",
      27
    ],
    [
      "CDISCPILOT01",
      "LB",
      "CDISC003",
      95,
      "MONO",
      "Monocytes",
      "HEMATOLOGY",
      "0.42",
      "10^9/L",
      "0.12",
      "0.92",
      "0.42",
      0.42,
      "10^9/L",
      0.12,
      0.92,
      "NORMAL",
      "",
      5,
      "WEEK 4",
      "TREATMENT",
      "2013-09-24T08:16",
      27
    ],
    [
      "CDISCPILOT01",
      "LB",
      "CDISC003",
      96,
      "SODIUM",
      "Sodium",
      "CHEMISTRY",
      "136",
      "mEq/L",
      "135",
      "145",
      "136",
      136,
      "mmol/L",
      135,
      145,
      "NORMAL",
      "",
      5,
      "WEEK 4",
      "TREATMENT",
      "2013-09-24T08:16",
      27
    ],
    [
      "CDISCPILOT01",
      "LB",
      "CDISC003",
      97,
      "PHOS",
      "Phosphate",
      "CHEMISTRY",
      "2.9",
      "mg/dL",
      "2.2",
      "5.1",
      "0.93641",
      0.93641,
      "mmol/L",
      0.71,
      1.65,
      "NORMAL",
      "",
      5,
      "WEEK 4",
      "TREATMENT",
      "2013-09-24T08:16",
      27
    ],
    [
      "CDISCPILOT01",
      "LB",
      "CDISC003",
      98,
      "PLAT",
      "Platelets",
      "HEMATOLOGY",
      "234",
      "10^9/L",
      "130",
      "394",
      "234",
      234,
      "10^9/L",
      130,
      394,
      "NORMAL",
      "",
      5,
      "WEEK 4",
      "TREATMENT",
      "2013-09-24T08:16",
      27
    ],
    [
      "CDISCPILOT01",
      "LB",
      "CDISC003",
      99,
      "PROT",
      "Protein",
      "CHEMISTRY",
      "7.4",
      "g/dL",
      "6",
      "8",
      "74",
      74,
      "g/L",
      60,
      80,
      "NORMAL",
      "",
      5,
      "WEEK 4",
      "TREATMENT",
      "2013-09-24T08:16",
      27
    ],
    [
      "CDISCPILOT01",
      "LB",
      "CDISC003",
      100,
      "RBC",
      "Erythrocytes",
      "HEMATOLOGY",
      "4.40",
      "10^12/L",
      "4",
      "5.8",
      "4.4",
      4.4,
      "10^12/L",
      4,
      5.8,
      "NORMAL",
      "",
      5,
      "WEEK 4",
      "TREATMENT",
      "2013-09-24T08:16",
      27
    ],
    [
      "CDISCPILOT01",
      "LB",
      "CDISC003",
      101,
      "URATE",
      "Urate",
      "CHEMISTRY",
      "4.5",
      "mg/dL",
      "2.5",
      "7.5",
      "267.66",
      267.66,
      "umol/L",
      149,
      446,
      "NORMAL",
      "",
      5,
      "WEEK 4",
      "TREATMENT",
      "2013-09-24T08:16",
      27
    ],
    [
      "CDISCPILOT01",
      "LB",
      "CDISC003",
      102,
      "WBC",
      "Leukocytes",
      "HEMATOLOGY",
      "4.47",
      "10^9/L",
      "3.8",
      "10.7",
      "4.47",
      4.47,
      "10^9/L",
      3.8,
      10.7,
      "NORMAL",
      "",
      5,
      "WEEK 4",
      "TREATMENT",
      "2013-09-24T08:16",
      27
    ],
    [
      "CDISCPILOT01",
      "LB",
      "CDISC003",
      103,
      "ALB",
      "Albumin",
      "CHEMISTRY",
      "4.1",
      "g/dL",
      "3.3",
      "4.9",
      "41",
      41,
      "g/L",
      33,
      49,
      "NORMAL",
      "",
      7,
      "WEEK 6",
      "TREATMENT",
      "2013-10-08T15:30",
      41
    ],
    [
      "CDISCPILOT01",
      "LB",
      "CDISC003",
      104,
      "ALP",
      "Alkaline Phosphatase",
      "CHEMISTRY",
      "77",
      "U/L",
      "35",
      "115",
      "77",
      77,
      "U/L",
      35,
      115,
      "NORMAL",
      "",
      7,
      "WEEK 6",
      "TREATMENT",
      "2013-10-08T15:30",
      41
    ],
    [
      "CDISCPILOT01",
      "LB",
      "CDISC003",
      105,
      "ALT",
      "Alanine Aminotransferase",
      "CHEMISTRY",
      "52",
      "U/L",
      "6",
      "43",
      "52",
      52,
      "U/L",
      6,
      43,
      "HIGH",
      "",
      7,
      "WEEK 6",
      "TREATMENT",
      "2013-10-08T15:30",
      41
    ],
    [
      "CDISCPILOT01",
      "LB",
      "CDISC003",
      106,
      "AST",
      "Aspartate Aminotransferase",
      "CHEMISTRY",
      "73",
      "U/L",
      "11",
      "36",
      "73",
      73,
      "U/L",
      11,
      36,
      "HIGH",
      "",
      7,
      "WEEK 6",
      "TREATMENT",
      "2013-10-08T15:30",
      41
    ],
    [
      "CDISCPILOT01",
      "LB",
      "CDISC003",
      107,
      "BASO",
      "Basophils",
      "HEMATOLOGY",
      "0.06",
      "10^9/L",
      "0",
      "0.2",
      "0.06",
      0.06,
      "10^9/L",
      0,
      0.2,
      "NORMAL",
      "",
      7,
      "WEEK 6",
      "TREATMENT",
      "2013-10-08T15:30",
      41
    ],
    [
      "CDISCPILOT01",
      "LB",
      "CDISC003",
      108,
      "BILI",
      "Bilirubin",
      "CHEMISTRY",
      "0.6",
      "mg/dL",
      "0.2",
      "1.2",
      "10.26",
      10.26,
      "umol/L",
      3,
      21,
      "NORMAL",
      "",
      7,
      "WEEK 6",
      "TREATMENT",
      "2013-10-08T15:30",
      41
    ],
    [
      "CDISCPILOT01",
      "LB",
      "CDISC003",
      109,
      "UREAN",
      "Urea Nitrogen",
      "CHEMISTRY",
      "16",
      "mg/dL",
      "4",
      "24",
      "5.712",
      5.712,
      "mmol/L",
      1.4,
      8.6,
      "NORMAL",
      "",
      7,
      "WEEK 6",
      "TREATMENT",
      "2013-10-08T15:30",
      41
    ],
    [
      "CDISCPILOT01",
      "LB",
      "CDISC003",
      110,
      "CA",
      "Calcium",
      "CHEMISTRY",
      "9.2",
      "mg/dL",
      "8.4",
      "10.3",
      "2.2954",
      2.2954,
      "mmol/L",
      2.1,
      2.57,
      "NORMAL",
      "",
      7,
      "WEEK 6",
      "TREATMENT",
      "2013-10-08T15:30",
      41
    ],
    [
      "CDISCPILOT01",
      "LB",
      "CDISC003",
      111,
      "CHOL",
      "Cholesterol",
      "CHEMISTRY",
      "232",
      "mg/dL",
      "149",
      "286",
      "5.99952",
      5.99952,
      "mmol/L",
      3.85,
      7.4,
      "NORMAL",
      "",
      7,
      "WEEK 6",
      "TREATMENT",
      "2013-10-08T15:30",
      41
    ],
    [
      "CDISCPILOT01",
      "LB",
      "CDISC003",
      112,
      "CK",
      "Creatine Kinase",
      "CHEMISTRY",
      "1860",
      "U/L",
      "22",
      "198",
      "1860",
      1860,
      "U/L",
      22,
      198,
      "HIGH",
      "",
      7,
      "WEEK 6",
      "TREATMENT",
      "2013-10-08T15:30",
      41
    ],
    [
      "CDISCPILOT01",
      "LB",
      "CDISC003",
      113,
      "CL",
      "Chloride",
      "CHEMISTRY",
      "109",
      "mEq/L",
      "94",
      "112",
      "109",
      109,
      "mmol/L",
      94,
      112,
      "NORMAL",
      "",
      7,
      "WEEK 6",
      "TREATMENT",
      "2013-10-08T15:30",
      41
    ],
    [
      "CDISCPILOT01",
      "LB",
      "CDISC003",
      114,
      "CREAT",
      "Creatinine",
      "CHEMISTRY",
      "1.3",
      "mg/dL",
      "0.8",
      "1.6",
      "114.92",
      114.92,
      "umol/L",
      71,
      141,
      "NORMAL",
      "",
      7,
      "WEEK 6",
      "TREATMENT",
      "2013-10-08T15:30",
      41
    ],
    [
      "CDISCPILOT01",
      "LB",
      "CDISC003",
      115,
      "EOS",
      "Eosinophils",
      "HEMATOLOGY",
      "0.30",
      "10^9/L",
      "0",
      "0.57",
      "0.3",
      0.3,
      "10^9/L",
      0,
      0.57,
      "NORMAL",
      "",
      7,
      "WEEK 6",
      "TREATMENT",
      "2013-10-08T15:30",
      41
    ],
    [
      "CDISCPILOT01",
      "LB",
      "CDISC003",
      116,
      "GGT",
      "Gamma Glutamyl Transferase",
      "CHEMISTRY",
      "13",
      "U/L",
      "10",
      "50",
      "13",
      13,
      "U/L",
      10,
      50,
      "NORMAL",
      "",
      7,
      "WEEK 6",
      "TREATMENT",
      "2013-10-08T15:30",
      41
    ],
    [
      "CDISCPILOT01",
      "LB",
      "CDISC003",
      117,
      "GLUC",
      "Glucose",
      "CHEMISTRY",
      "86",
      "mg/dL",
      "50",
      "250",
      "4.77386",
      4.77386,
      "mmol/L",
      2.8,
      13.9,
      "NORMAL",
      "",
      7,
      "WEEK 6",
      "TREATMENT",
      "2013-10-08T15:30",
      41
    ],
    [
      "CDISCPILOT01",
      "LB",
      "CDISC003",
      118,
      "HCT",
      "Hematocrit",
      "HEMATOLOGY",
      "38.0",
      "%",
      "37",
      "51",
      "0.38",
      0.38,
      "",
      0.37,
      0.51,
      "NORMAL",
      "",
      7,
      "WEEK 6",
      "TREATMENT",
      "2013-10-08T15:30",
      41
    ],
    [
      "CDISCPILOT01",
      "LB",
      "CDISC003",
      119,
      "HGB",
      "Hemoglobin",
      "HEMATOLOGY",
      "13.3",
      "g/dL",
      "12.5",
      "17",
      "8.25398",
      8.25398,
      "mmol/L",
      7.76,
      10.55,
      "NORMAL",
      "",
      7,
      "WEEK 6",
      "TREATMENT",
      "2013-10-08T15:30",
      41
    ],
    [
      "CDISCPILOT01",
      "LB",
      "CDISC003",
      120,
      "K",
      "Potassium",
      "CHEMISTRY",
      "3.9",
      "mEq/L",
      "3.4",
      "5.4",
      "3.9",
      3.9,
      "mmol/L",
      3.4,
      5.4,
      "NORMAL",
      "",
      7,
      "WEEK 6",
      "TREATMENT",
      "2013-10-08T15:30",
      41
    ],
    [
      "CDISCPILOT01",
      "LB",
      "CDISC003",
      121,
      "LYM",
      "Lymphocytes",
      "HEMATOLOGY",
      "1.82",
      "10^9/L",
      "0.8",
      "3",
      "1.82",
      1.82,
      "10^9/L",
      0.8,
      3,
      "NORMAL",
      "",
      7,
      "WEEK 6",
      "TREATMENT",
      "2013-10-08T15:30",
      41
    ],
    [
      "CDISCPILOT01",
      "LB",
      "CDISC003",
      122,
      "MCH",
      "Ery. Mean Corpuscular Hemoglobin",
      "HEMATOLOGY",
      "32",
      "pg",
      "26",
      "34",
      "1.98592",
      1.98592,
      "fmol",
      1.6,
      2.1,
      "NORMAL",
      "",
      7,
      "WEEK 6",
      "TREATMENT",
      "2013-10-08T15:30",
      41
    ],
    [
      "CDISCPILOT01",
      "LB",
      "CDISC003",
      123,
      "MCHC",
      "Ery. Mean Corpuscular HGB Concentration",
      "HEMATOLOGY",
      "35",
      "g/dL",
      "31",
      "38",
      "21.721",
      21.721,
      "mmol/L",
      19,
      24,
      "NORMAL",
      "",
      7,
      "WEEK 6",
      "TREATMENT",
      "2013-10-08T15:30",
      41
    ],
    [
      "CDISCPILOT01",
      "LB",
      "CDISC003",
      124,
      "MCV",
      "Ery. Mean Corpuscular Volume",
      "HEMATOLOGY",
      "91",
      "fL",
      "80",
      "100",
      "91",
      91,
      "fL",
      80,
      100,
      "NORMAL",
      "",
      7,
      "WEEK 6",
      "TREATMENT",
      "2013-10-08T15:30",
      41
    ],
    [
      "CDISCPILOT01",
      "LB",
      "CDISC003",
      125,
      "MONO",
      "Monocytes",
      "HEMATOLOGY",
      "0.30",
      "10^9/L",
      "0.12",
      "0.92",
      "0.3",
      0.3,
      "10^9/L",
      0.12,
      0.92,
      "NORMAL",
      "",
      7,
      "WEEK 6",
      "TREATMENT",
      "2013-10-08T15:30",
      41
    ],
    [
      "CDISCPILOT01",
      "LB",
      "CDISC003",
      126,
      "SODIUM",
      "Sodium",
      "CHEMISTRY",
      "137",
      "mEq/L",
      "135",
      "145",
      "137",
      137,
      "mmol/L",
      135,
      145,
      "NORMAL",
      "",
      7,
      "WEEK 6",
      "TREATMENT",
      "2013-10-08T15:30",
      41
    ],
    [
      "CDISCPILOT01",
      "LB",
      "CDISC003",
      127,
      "PHOS",
      "Phosphate",
      "CHEMISTRY",
      "3.1",
      "mg/dL",
      "2.2",
      "5.1",
      "1.00099",
      1.00099,
      "mmol/L",
      0.71,
      1.65,
      "NORMAL",
      "",
      7,
      "WEEK 6",
      "TREATMENT",
      "2013-10-08T15:30",
      41
    ],
    [
      "CDISCPILOT01",
      "LB",
      "CDISC003",
      128,
      "PLAT",
      "Platelets",
      "HEMATOLOGY",
      "194",
      "10^9/L",
      "130",
      "394",
      "194",
      194,
      "10^9/L",
      130,
      394,
      "NORMAL",
      "",
      7,
      "WEEK 6",
      "TREATMENT",
      "2013-10-08T15:30",
      41
    ],
    [
      "CDISCPILOT01",
      "LB",
      "CDISC003",
      129,
      "PROT",
      "Protein",
      "CHEMISTRY",
      "7.2",
      "g/dL",
      "6",
      "8",
      "72",
      72,
      "g/L",
      60,
      80,
      "NORMAL",
      "",
      7,
      "WEEK 6",
      "TREATMENT",
      "2013-10-08T15:30",
      41
    ],
    [
      "CDISCPILOT01",
      "LB",
      "CDISC003",
      130,
      "RBC",
      "Erythrocytes",
      "HEMATOLOGY",
      "4.20",
      "10^12/L",
      "4",
      "5.8",
      "4.2",
      4.2,
      "10^12/L",
      4,
      5.8,
      "NORMAL",
      "",
      7,
      "WEEK 6",
      "TREATMENT",
      "2013-10-08T15:30",
      41
    ],
    [
      "CDISCPILOT01",
      "LB",
      "CDISC003",
      131,
      "URATE",
      "Urate",
      "CHEMISTRY",
      "4.2",
      "mg/dL",
      "2.5",
      "7.5",
      "249.816",
      249.816,
      "umol/L",
      149,
      446,
      "NORMAL",
      "",
      7,
      "WEEK 6",
      "TREATMENT",
      "2013-10-08T15:30",
      41
    ],
    [
      "CDISCPILOT01",
      "LB",
      "CDISC003",
      132,
      "WBC",
      "Leukocytes",
      "HEMATOLOGY",
      "6.07",
      "10^9/L",
      "3.8",
      "10.7",
      "6.07",
      6.07,
      "10^9/L",
      3.8,
      10.7,
      "NORMAL",
      "",
      7,
      "WEEK 6",
      "TREATMENT",
      "2013-10-08T15:30",
      41
    ],
    [
      "CDISCPILOT01",
      "LB",
      "CDISC003",
      133,
      "ALB",
      "Albumin",
      "CHEMISTRY",
      "4.1",
      "g/dL",
      "3.3",
      "4.9",
      "41",
      41,
      "g/L",
      33,
      49,
      "NORMAL",
      "",
      8,
      "WEEK 8",
      "TREATMENT",
      "2013-10-22T11:54",
      55
    ],
    [
      "CDISCPILOT01",
      "LB",
      "CDISC003",
      134,
      "ALP",
      "Alkaline Phosphatase",
      "CHEMISTRY",
      "62",
      "U/L",
      "35",
      "115",
      "62",
      62,
      "U/L",
      35,
      115,
      "NORMAL",
      "",
      8,
      "WEEK 8",
      "TREATMENT",
      "2013-10-22T11:54",
      55
    ],
    [
      "CDISCPILOT01",
      "LB",
      "CDISC003",
      135,
      "ALT",
      "Alanine Aminotransferase",
      "CHEMISTRY",
      "33",
      "U/L",
      "6",
      "43",
      "33",
      33,
      "U/L",
      6,
      43,
      "NORMAL",
      "",
      8,
      "WEEK 8",
      "TREATMENT",
      "2013-10-22T11:54",
      55
    ],
    [
      "CDISCPILOT01",
      "LB",
      "CDISC003",
      136,
      "AST",
      "Aspartate Aminotransferase",
      "CHEMISTRY",
      "30",
      "U/L",
      "11",
      "36",
      "30",
      30,
      "U/L",
      11,
      36,
      "NORMAL",
      "",
      8,
      "WEEK 8",
      "TREATMENT",
      "2013-10-22T11:54",
      55
    ],
    [
      "CDISCPILOT01",
      "LB",
      "CDISC003",
      137,
      "BASO",
      "Basophils",
      "HEMATOLOGY",
      "0.04",
      "10^9/L",
      "0",
      "0.2",
      "0.04",
      0.04,
      "10^9/L",
      0,
      0.2,
      "NORMAL",
      "",
      8,
      "WEEK 8",
      "TREATMENT",
      "2013-10-22T11:54",
      55
    ],
    [
      "CDISCPILOT01",
      "LB",
      "CDISC003",
      138,
      "BILI",
      "Bilirubin",
      "CHEMISTRY",
      "0.5",
      "mg/dL",
      "0.2",
      "1.2",
      "8.55",
      8.55,
      "umol/L",
      3,
      21,
      "NORMAL",
      "",
      8,
      "WEEK 8",
      "TREATMENT",
      "2013-10-22T11:54",
      55
    ],
    [
      "CDISCPILOT01",
      "LB",
      "CDISC003",
      139,
      "UREAN",
      "Urea Nitrogen",
      "CHEMISTRY",
      "14",
      "mg/dL",
      "4",
      "24",
      "4.998",
      4.998,
      "mmol/L",
      1.4,
      8.6,
      "NORMAL",
      "",
      8,
      "WEEK 8",
      "TREATMENT",
      "2013-10-22T11:54",
      55
    ],
    [
      "CDISCPILOT01",
      "LB",
      "CDISC003",
      140,
      "CA",
      "Calcium",
      "CHEMISTRY",
      "9.5",
      "mg/dL",
      "8.4",
      "10.3",
      "2.37025",
      2.37025,
      "mmol/L",
      2.1,
      2.57,
      "NORMAL",
      "",
      8,
      "WEEK 8",
      "TREATMENT",
      "2013-10-22T11:54",
      55
    ],
    [
      "CDISCPILOT01",
      "LB",
      "CDISC003",
      141,
      "CHOL",
      "Cholesterol",
      "CHEMISTRY",
      "241",
      "mg/dL",
      "149",
      "286",
      "6.23226",
      6.23226,
      "mmol/L",
      3.85,
      7.4,
      "NORMAL",
      "",
      8,
      "WEEK 8",
      "TREATMENT",
      "2013-10-22T11:54",
      55
    ],
    [
      "CDISCPILOT01",
      "LB",
      "CDISC003",
      142,
      "CK",
      "Creatine Kinase",
      "CHEMISTRY",
      "145",
      "U/L",
      "22",
      "198",
      "145",
      145,
      "U/L",
      22,
      198,
      "NORMAL",
      "",
      8,
      "WEEK 8",
      "TREATMENT",
      "2013-10-22T11:54",
      55
    ],
    [
      "CDISCPILOT01",
      "LB",
      "CDISC003",
      143,
      "CL",
      "Chloride",
      "CHEMISTRY",
      "105",
      "mEq/L",
      "94",
      "112",
      "105",
      105,
      "mmol/L",
      94,
      112,
      "NORMAL",
      "",
      8,
      "WEEK 8",
      "TREATMENT",
      "2013-10-22T11:54",
      55
    ],
    [
      "CDISCPILOT01",
      "LB",
      "CDISC003",
      144,
      "CREAT",
      "Creatinine",
      "CHEMISTRY",
      "1.3",
      "mg/dL",
      "0.8",
      "1.6",
      "114.92",
      114.92,
      "umol/L",
      71,
      141,
      "NORMAL",
      "",
      8,
      "WEEK 8",
      "TREATMENT",
      "2013-10-22T11:54",
      55
    ],
    [
      "CDISCPILOT01",
      "LB",
      "CDISC003",
      145,
      "EOS",
      "Eosinophils",
      "HEMATOLOGY",
      "0.22",
      "10^9/L",
      "0",
      "0.57",
      "0.22",
      0.22,
      "10^9/L",
      0,
      0.57,
      "NORMAL",
      "",
      8,
      "WEEK 8",
      "TREATMENT",
      "2013-10-22T11:54",
      55
    ],
    [
      "CDISCPILOT01",
      "LB",
      "CDISC003",
      146,
      "GGT",
      "Gamma Glutamyl Transferase",
      "CHEMISTRY",
      "14",
      "U/L",
      "10",
      "50",
      "14",
      14,
      "U/L",
      10,
      50,
      "NORMAL",
      "",
      8,
      "WEEK 8",
      "TREATMENT",
      "2013-10-22T11:54",
      55
    ],
    [
      "CDISCPILOT01",
      "LB",
      "CDISC003",
      147,
      "GLUC",
      "Glucose",
      "CHEMISTRY",
      "92",
      "mg/dL",
      "50",
      "250",
      "5.10692",
      5.10692,
      "mmol/L",
      2.8,
      13.9,
      "NORMAL",
      "",
      8,
      "WEEK 8",
      "TREATMENT",
      "2013-10-22T11:54",
      55
    ],
    [
      "CDISCPILOT01",
      "LB",
      "CDISC003",
      148,
      "HCT",
      "Hematocrit",
      "HEMATOLOGY",
      "43.0",
      "%",
      "37",
      "51",
      "0.43",
      0.43,
      "",
      0.37,
      0.51,
      "NORMAL",
      "",
      8,
      "WEEK 8",
      "TREATMENT",
      "2013-10-22T11:54",
      55
    ],
    [
      "CDISCPILOT01",
      "LB",
      "CDISC003",
      149,
      "HGB",
      "Hemoglobin",
      "HEMATOLOGY",
      "14.5",
      "g/dL",
      "12.5",
      "17",
      "8.9987",
      8.9987,
      "mmol/L",
      7.76,
      10.55,
      "NORMAL",
      "",
      8,
      "WEEK 8",
      "TREATMENT",
      "2013-10-22T11:54",
      55
    ],
    [
      "CDISCPILOT01",
      "LB",
      "CDISC003",
      150,
      "K",
      "Potassium",
      "CHEMISTRY",
      "4.3",
      "mEq/L",
      "3.4",
      "5.4",
      "4.3",
      4.3,
      "mmol/L",
      3.4,
      5.4,
      "NORMAL",
      "",
      8,
      "WEEK 8",
      "TREATMENT",
      "2013-10-22T11:54",
      55
    ],
    [
      "CDISCPILOT01",
      "LB",
      "CDISC003",
      151,
      "LYM",
      "Lymphocytes",
      "HEMATOLOGY",
      "1.54",
      "10^9/L",
      "0.8",
      "3",
      "1.54",
      1.54,
      "10^9/L",
      0.8,
      3,
      "NORMAL",
      "",
      8,
      "WEEK 8",
      "TREATMENT",
      "2013-10-22T11:54",
      55
    ],
    [
      "CDISCPILOT01",
      "LB",
      "CDISC003",
      152,
      "MCH",
      "Ery. Mean Corpuscular Hemoglobin",
      "HEMATOLOGY",
      "32",
      "pg",
      "26",
      "34",
      "1.98592",
      1.98592,
      "fmol",
      1.6,
      2.1,
      "NORMAL",
      "",
      8,
      "WEEK 8",
      "TREATMENT",
      "2013-10-22T11:54",
      55
    ],
    [
      "CDISCPILOT01",
      "LB",
      "CDISC003",
      153,
      "MCHC",
      "Ery. Mean Corpuscular HGB Concentration",
      "HEMATOLOGY",
      "34",
      "g/dL",
      "31",
      "38",
      "21.1004",
      21.1004,
      "mmol/L",
      19,
      24,
      "NORMAL",
      "",
      8,
      "WEEK 8",
      "TREATMENT",
      "2013-10-22T11:54",
      55
    ],
    [
      "CDISCPILOT01",
      "LB",
      "CDISC003",
      154,
      "MCV",
      "Ery. Mean Corpuscular Volume",
      "HEMATOLOGY",
      "93",
      "fL",
      "80",
      "100",
      "93",
      93,
      "fL",
      80,
      100,
      "NORMAL",
      "",
      8,
      "WEEK 8",
      "TREATMENT",
      "2013-10-22T11:54",
      55
    ],
    [
      "CDISCPILOT01",
      "LB",
      "CDISC003",
      155,
      "MONO",
      "Monocytes",
      "HEMATOLOGY",
      "0.40",
      "10^9/L",
      "0.12",
      "0.92",
      "0.4",
      0.4,
      "10^9/L",
      0.12,
      0.92,
      "NORMAL",
      "",
      8,
      "WEEK 8",
      "TREATMENT",
      "2013-10-22T11:54",
      55
    ],
    [
      "CDISCPILOT01",
      "LB",
      "CDISC003",
      156,
      "SODIUM",
      "Sodium",
      "CHEMISTRY",
      "136",
      "mEq/L",
      "135",
      "145",
      "136",
      136,
      "mmol/L",
      135,
      145,
      "NORMAL",
      "",
      8,
      "WEEK 8",
      "TREATMENT",
      "2013-10-22T11:54",
      55
    ],
    [
      "CDISCPILOT01",
      "LB",
      "CDISC003",
      157,
      "PHOS",
      "Phosphate",
      "CHEMISTRY",
      "3.3",
      "mg/dL",
      "2.2",
      "5.1",
      "1.06557",
      1.06557,
      "mmol/L",
      0.71,
      1.65,
      "NORMAL",
      "",
      8,
      "WEEK 8",
      "TREATMENT",
      "2013-10-22T11:54",
      55
    ],
    [
      "CDISCPILOT01",
      "LB",
      "CDISC003",
      158,
      "PLAT",
      "Platelets",
      "HEMATOLOGY",
      "225",
      "10^9/L",
      "130",
      "394",
      "225",
      225,
      "10^9/L",
      130,
      394,
      "NORMAL",
      "",
      8,
      "WEEK 8",
      "TREATMENT",
      "2013-10-22T11:54",
      55
    ],
    [
      "CDISCPILOT01",
      "LB",
      "CDISC003",
      159,
      "PROT",
      "Protein",
      "CHEMISTRY",
      "7.4",
      "g/dL",
      "6",
      "8",
      "74",
      74,
      "g/L",
      60,
      80,
      "NORMAL",
      "",
      8,
      "WEEK 8",
      "TREATMENT",
      "2013-10-22T11:54",
      55
    ],
    [
      "CDISCPILOT01",
      "LB",
      "CDISC003",
      160,
      "RBC",
      "Erythrocytes",
      "HEMATOLOGY",
      "4.60",
      "10^12/L",
      "4",
      "5.8",
      "4.6",
      4.6,
      "10^12/L",
      4,
      5.8,
      "NORMAL",
      "",
      8,
      "WEEK 8",
      "TREATMENT",
      "2013-10-22T11:54",
      55
    ],
    [
      "CDISCPILOT01",
      "LB",
      "CDISC003",
      161,
      "URATE",
      "Urate",
      "CHEMISTRY",
      "3.6",
      "mg/dL",
      "2.5",
      "7.5",
      "214.128",
      214.128,
      "umol/L",
      149,
      446,
      "NORMAL",
      "",
      8,
      "WEEK 8",
      "TREATMENT",
      "2013-10-22T11:54",
      55
    ],
    [
      "CDISCPILOT01",
      "LB",
      "CDISC003",
      162,
      "WBC",
      "Leukocytes",
      "HEMATOLOGY",
      "4.64",
      "10^9/L",
      "3.8",
      "10.7",
      "4.64",
      4.64,
      "10^9/L",
      3.8,
      10.7,
      "NORMAL",
      "",
      8,
      "WEEK 8",
      "TREATMENT",
      "2013-10-22T11:54",
      55
    ],
    [
      "CDISCPILOT01",
      "LB",
      "CDISC003",
      163,
      "ALB",
      "Albumin",
      "CHEMISTRY",
      "4.1",
      "g/dL",
      "3.3",
      "4.9",
      "41",
      41,
      "g/L",
      33,
      49,
      "NORMAL",
      "",
      9,
      "WEEK 12",
      "TREATMENT",
      "2013-11-05T13:54",
      69
    ],
    [
      "CDISCPILOT01",
      "LB",
      "CDISC003",
      164,
      "ALP",
      "Alkaline Phosphatase",
      "CHEMISTRY",
      "62",
      "U/L",
      "35",
      "115",
      "62",
      62,
      "U/L",
      35,
      115,
      "NORMAL",
      "",
      9,
      "WEEK 12",
      "TREATMENT",
      "2013-11-05T13:54",
      69
    ],
    [
      "CDISCPILOT01",
      "LB",
      "CDISC003",
      165,
      "ALT",
      "Alanine Aminotransferase",
      "CHEMISTRY",
      "24",
      "U/L",
      "6",
      "43",
      "24",
      24,
      "U/L",
      6,
      43,
      "NORMAL",
      "",
      9,
      "WEEK 12",
      "TREATMENT",
      "2013-11-05T13:54",
      69
    ],
    [
      "CDISCPILOT01",
      "LB",
      "CDISC003",
      166,
      "AST",
      "Aspartate Aminotransferase",
      "CHEMISTRY",
      "25",
      "U/L",
      "11",
      "36",
      "25",
      25,
      "U/L",
      11,
      36,
      "NORMAL",
      "",
      9,
      "WEEK 12",
      "TREATMENT",
      "2013-11-05T13:54",
      69
    ],
    [
      "CDISCPILOT01",
      "LB",
      "CDISC003",
      167,
      "BASO",
      "Basophils",
      "HEMATOLOGY",
      "0.05",
      "10^9/L",
      "0",
      "0.2",
      "0.05",
      0.05,
      "10^9/L",
      0,
      0.2,
      "NORMAL",
      "",
      9,
      "WEEK 12",
      "TREATMENT",
      "2013-11-05T13:54",
      69
    ],
    [
      "CDISCPILOT01",
      "LB",
      "CDISC003",
      168,
      "BILI",
      "Bilirubin",
      "CHEMISTRY",
      "0.5",
      "mg/dL",
      "0.2",
      "1.2",
      "8.55",
      8.55,
      "umol/L",
      3,
      21,
      "NORMAL",
      "",
      9,
      "WEEK 12",
      "TREATMENT",
      "2013-11-05T13:54",
      69
    ],
    [
      "CDISCPILOT01",
      "LB",
      "CDISC003",
      169,
      "UREAN",
      "Urea Nitrogen",
      "CHEMISTRY",
      "13",
      "mg/dL",
      "4",
      "24",
      "4.641",
      4.641,
      "mmol/L",
      1.4,
      8.6,
      "NORMAL",
      "",
      9,
      "WEEK 12",
      "TREATMENT",
      "2013-11-05T13:54",
      69
    ],
    [
      "CDISCPILOT01",
      "LB",
      "CDISC003",
      170,
      "CA",
      "Calcium",
      "CHEMISTRY",
      "9.3",
      "mg/dL",
      "8.4",
      "10.3",
      "2.32035",
      2.32035,
      "mmol/L",
      2.1,
      2.57,
      "NORMAL",
      "",
      9,
      "WEEK 12",
      "TREATMENT",
      "2013-11-05T13:54",
      69
    ],
    [
      "CDISCPILOT01",
      "LB",
      "CDISC003",
      171,
      "CHOL",
      "Cholesterol",
      "CHEMISTRY",
      "232",
      "mg/dL",
      "149",
      "286",
      "5.99952",
      5.99952,
      "mmol/L",
      3.85,
      7.4,
      "NORMAL",
      "",
      9,
      "WEEK 12",
      "TREATMENT",
      "2013-11-05T13:54",
      69
    ],
    [
      "CDISCPILOT01",
      "LB",
      "CDISC003",
      172,
      "CK",
      "Creatine Kinase",
      "CHEMISTRY",
      "112",
      "U/L",
      "22",
      "198",
      "112",
      112,
      "U/L",
      22,
      198,
      "NORMAL",
      "",
      9,
      "WEEK 12",
      "TREATMENT",
      "2013-11-05T13:54",
      69
    ],
    [
      "CDISCPILOT01",
      "LB",
      "CDISC003",
      173,
      "CL",
      "Chloride",
      "CHEMISTRY",
      "106",
      "mEq/L",
      "94",
      "112",
      "106",
      106,
      "mmol/L",
      94,
      112,
      "NORMAL",
      "",
      9,
      "WEEK 12",
      "TREATMENT",
      "2013-11-05T13:54",
      69
    ],
    [
      "CDISCPILOT01",
      "LB",
      "CDISC003",
      174,
      "COLOR",
      "Color",
      "URINALYSIS",
      "NORMAL",
      "",
      "",
      "",
      "NORMAL",
      null,
      "",
      null,
      null,
      "NORMAL",
      "",
      9,
      "WEEK 12",
      "TREATMENT",
      "2013-11-05T13:54",
      69
    ],
    [
      "CDISCPILOT01",
      "LB",
      "CDISC003",
      175,
      "CREAT",
      "Creatinine",
      "CHEMISTRY",
      "1.3",
      "mg/dL",
      "0.8",
      "1.6",
      "114.92",
      114.92,
      "umol/L",
      71,
      141,
      "NORMAL",
      "",
      9,
      "WEEK 12",
      "TREATMENT",
      "2013-11-05T13:54",
      69
    ],
    [
      "CDISCPILOT01",
      "LB",
      "CDISC003",
      176,
      "EOS",
      "Eosinophils",
      "HEMATOLOGY",
      "0.50",
      "10^9/L",
      "0",
      "0.57",
      "0.5",
      0.5,
      "10^9/L",
      0,
      0.57,
      "NORMAL",
      "",
      9,
      "WEEK 12",
      "TREATMENT",
      "2013-11-05T13:54",
      69
    ],
    [
      "CDISCPILOT01",
      "LB",
      "CDISC003",
      177,
      "GGT",
      "Gamma Glutamyl Transferase",
      "CHEMISTRY",
      "13",
      "U/L",
      "10",
      "50",
      "13",
      13,
      "U/L",
      10,
      50,
      "NORMAL",
      "",
      9,
      "WEEK 12",
      "TREATMENT",
      "2013-11-05T13:54",
      69
    ],
    [
      "CDISCPILOT01",
      "LB",
      "CDISC003",
      178,
      "GLUC",
      "Glucose",
      "CHEMISTRY",
      "93",
      "mg/dL",
      "50",
      "250",
      "5.16243",
      5.16243,
      "mmol/L",
      2.8,
      13.9,
      "NORMAL",
      "",
      9,
      "WEEK 12",
      "TREATMENT",
      "2013-11-05T13:54",
      69
    ],
    [
      "CDISCPILOT01",
      "LB",
      "CDISC003",
      179,
      "HCT",
      "Hematocrit",
      "HEMATOLOGY",
      "41.0",
      "%",
      "37",
      "51",
      "0.41",
      0.41,
      "",
      0.37,
      0.51,
      "NORMAL",
      "",
      9,
      "WEEK 12",
      "TREATMENT",
      "2013-11-05T13:54",
      69
    ],
    [
      "CDISCPILOT01",
      "LB",
      "CDISC003",
      180,
      "HGB",
      "Hemoglobin",
      "HEMATOLOGY",
      "13.6",
      "g/dL",
      "12.5",
      "17",
      "8.44016",
      8.44016,
      "mmol/L",
      7.76,
      10.55,
      "NORMAL",
      "",
      9,
      "WEEK 12",
      "TREATMENT",
      "2013-11-05T13:54",
      69
    ],
    [
      "CDISCPILOT01",
      "LB",
      "CDISC003",
      181,
      "K",
      "Potassium",
      "CHEMISTRY",
      "4.1",
      "mEq/L",
      "3.4",
      "5.4",
      "4.1",
      4.1,
      "mmol/L",
      3.4,
      5.4,
      "NORMAL",
      "",
      9,
      "WEEK 12",
      "TREATMENT",
      "2013-11-05T13:54",
      69
    ],
    [
      "CDISCPILOT01",
      "LB",
      "CDISC003",
      182,
      "KETONES",
      "Ketones",
      "URINALYSIS",
      "0",
      "",
      "",
      "",
      "0",
      0,
      "",
      null,
      null,
      "NORMAL",
      "",
      9,
      "WEEK 12",
      "TREATMENT",
      "2013-11-05T13:54",
      69
    ],
    [
      "CDISCPILOT01",
      "LB",
      "CDISC003",
      183,
      "LYM",
      "Lymphocytes",
      "HEMATOLOGY",
      "1.55",
      "10^9/L",
      "0.8",
      "3",
      "1.55",
      1.55,
      "10^9/L",
      0.8,
      3,
      "NORMAL",
      "",
      9,
      "WEEK 12",
      "TREATMENT",
      "2013-11-05T13:54",
      69
    ],
    [
      "CDISCPILOT01",
      "LB",
      "CDISC003",
      184,
      "MCH",
      "Ery. Mean Corpuscular Hemoglobin",
      "HEMATOLOGY",
      "31",
      "pg",
      "26",
      "34",
      "1.92386",
      1.92386,
      "fmol",
      1.6,
      2.1,
      "NORMAL",
      "",
      9,
      "WEEK 12",
      "TREATMENT",
      "2013-11-05T13:54",
      69
    ],
    [
      "CDISCPILOT01",
      "LB",
      "CDISC003",
      185,
      "MCHC",
      "Ery. Mean Corpuscular HGB Concentration",
      "HEMATOLOGY",
      "34",
      "g/dL",
      "31",
      "38",
      "21.1004",
      21.1004,
      "mmol/L",
      19,
      24,
      "NORMAL",
      "",
      9,
      "WEEK 12",
      "TREATMENT",
      "2013-11-05T13:54",
      69
    ],
    [
      "CDISCPILOT01",
      "LB",
      "CDISC003",
      186,
      "MCV",
      "Ery. Mean Corpuscular Volume",
      "HEMATOLOGY",
      "92",
      "fL",
      "80",
      "100",
      "92",
      92,
      "fL",
      80,
      100,
      "NORMAL",
      "",
      9,
      "WEEK 12",
      "TREATMENT",
      "2013-11-05T13:54",
      69
    ],
    [
      "CDISCPILOT01",
      "LB",
      "CDISC003",
      187,
      "MONO",
      "Monocytes",
      "HEMATOLOGY",
      "0.54",
      "10^9/L",
      "0.12",
      "0.92",
      "0.54",
      0.54,
      "10^9/L",
      0.12,
      0.92,
      "NORMAL",
      "",
      9,
      "WEEK 12",
      "TREATMENT",
      "2013-11-05T13:54",
      69
    ],
    [
      "CDISCPILOT01",
      "LB",
      "CDISC003",
      188,
      "SODIUM",
      "Sodium",
      "CHEMISTRY",
      "139",
      "mEq/L",
      "135",
      "145",
      "139",
      139,
      "mmol/L",
      135,
      145,
      "NORMAL",
      "",
      9,
      "WEEK 12",
      "TREATMENT",
      "2013-11-05T13:54",
      69
    ],
    [
      "CDISCPILOT01",
      "LB",
      "CDISC003",
      189,
      "PH",
      "pH",
      "URINALYSIS",
      "5",
      "",
      "5",
      "8",
      "5",
      5,
      "",
      5,
      8,
      "NORMAL",
      "",
      9,
      "WEEK 12",
      "TREATMENT",
      "2013-11-05T13:54",
      69
    ],
    [
      "CDISCPILOT01",
      "LB",
      "CDISC003",
      190,
      "PHOS",
      "Phosphate",
      "CHEMISTRY",
      "3.5",
      "mg/dL",
      "2.2",
      "5.1",
      "1.13015",
      1.13015,
      "mmol/L",
      0.71,
      1.65,
      "NORMAL",
      "",
      9,
      "WEEK 12",
      "TREATMENT",
      "2013-11-05T13:54",
      69
    ],
    [
      "CDISCPILOT01",
      "LB",
      "CDISC003",
      191,
      "PLAT",
      "Platelets",
      "HEMATOLOGY",
      "224",
      "10^9/L",
      "130",
      "394",
      "224",
      224,
      "10^9/L",
      130,
      394,
      "NORMAL",
      "",
      9,
      "WEEK 12",
      "TREATMENT",
      "2013-11-05T13:54",
      69
    ],
    [
      "CDISCPILOT01",
      "LB",
      "CDISC003",
      192,
      "PROT",
      "Protein",
      "CHEMISTRY",
      "7.4",
      "g/dL",
      "6",
      "8",
      "74",
      74,
      "g/L",
      60,
      80,
      "NORMAL",
      "",
      9,
      "WEEK 12",
      "TREATMENT",
      "2013-11-05T13:54",
      69
    ],
    [
      "CDISCPILOT01",
      "LB",
      "CDISC003",
      193,
      "RBC",
      "Erythrocytes",
      "HEMATOLOGY",
      "4.40",
      "10^12/L",
      "4",
      "5.8",
      "4.4",
      4.4,
      "10^12/L",
      4,
      5.8,
      "NORMAL",
      "",
      9,
      "WEEK 12",
      "TREATMENT",
      "2013-11-05T13:54",
      69
    ],
    [
      "CDISCPILOT01",
      "LB",
      "CDISC003",
      194,
      "SPGRAV",
      "Specific Gravity",
      "URINALYSIS",
      "1.013",
      "",
      "1.006",
      "1.03",
      "1.013",
      1.013,
      "",
      1.006,
      1.03,
      "NORMAL",
      "",
      9,
      "WEEK 12",
      "TREATMENT",
      "2013-11-05T13:54",
      69
    ],
    [
      "CDISCPILOT01",
      "LB",
      "CDISC003",
      195,
      "URATE",
      "Urate",
      "CHEMISTRY",
      "3.6",
      "mg/dL",
      "2.5",
      "7.5",
      "214.128",
      214.128,
      "umol/L",
      149,
      446,
      "NORMAL",
      "",
      9,
      "WEEK 12",
      "TREATMENT",
      "2013-11-05T13:54",
      69
    ],
    [
      "CDISCPILOT01",
      "LB",
      "CDISC003",
      196,
      "UROBIL",
      "Urobilinogen",
      "URINALYSIS",
      "0",
      "",
      "",
      "",
      "0",
      0,
      "",
      null,
      null,
      "NORMAL",
      "",
      9,
      "WEEK 12",
      "TREATMENT",
      "2013-11-05T13:54",
      69
    ],
    [
      "CDISCPILOT01",
      "LB",
      "CDISC003",
      197,
      "WBC",
      "Leukocytes",
      "HEMATOLOGY",
      "5.59",
      "10^9/L",
      "3.8",
      "10.7",
      "5.59",
      5.59,
      "10^9/L",
      3.8,
      10.7,
      "NORMAL",
      "",
      9,
      "WEEK 12",
      "TREATMENT",
      "2013-11-05T13:54",
      69
    ],
    [
      "CDISCPILOT01",
      "LB",
      "CDISC004",
      1,
      "ALB",
      "Albumin",
      "CHEMISTRY",
      "4.5",
      "g/dL",
      "3.3",
      "4.9",
      "45",
      45,
      "g/L",
      33,
      49,
      "NORMAL",
      "Y",
      1,
      "SCREENING 1",
      "SCREENING",
      "2013-10-01T12:50",
      -7
    ],
    [
      "CDISCPILOT01",
      "LB",
      "CDISC004",
      2,
      "ALP",
      "Alkaline Phosphatase",
      "CHEMISTRY",
      "60",
      "U/L",
      "35",
      "115",
      "60",
      60,
      "U/L",
      35,
      115,
      "NORMAL",
      "Y",
      1,
      "SCREENING 1",
      "SCREENING",
      "2013-10-01T12:50",
      -7
    ],
    [
      "CDISCPILOT01",
      "LB",
      "CDISC004",
      3,
      "ALT",
      "Alanine Aminotransferase",
      "CHEMISTRY",
      "13",
      "U/L",
      "6",
      "34",
      "13",
      13,
      "U/L",
      6,
      34,
      "NORMAL",
      "Y",
      1,
      "SCREENING 1",
      "SCREENING",
      "2013-10-01T12:50",
      -7
    ],
    [
      "CDISCPILOT01",
      "LB",
      "CDISC004",
      4,
      "AST",
      "Aspartate Aminotransferase",
      "CHEMISTRY",
      "22",
      "U/L",
      "9",
      "34",
      "22",
      22,
      "U/L",
      9,
      34,
      "NORMAL",
      "Y",
      1,
      "SCREENING 1",
      "SCREENING",
      "2013-10-01T12:50",
      -7
    ],
    [
      "CDISCPILOT01",
      "LB",
      "CDISC004",
      5,
      "BASO",
      "Basophils",
      "HEMATOLOGY",
      "0.09",
      "10^9/L",
      "0",
      "0.2",
      "0.09",
      0.09,
      "10^9/L",
      0,
      0.2,
      "NORMAL",
      "Y",
      1,
      "SCREENING 1",
      "SCREENING",
      "2013-10-01T12:50",
      -7
    ],
    [
      "CDISCPILOT01",
      "LB",
      "CDISC004",
      6,
      "BILI",
      "Bilirubin",
      "CHEMISTRY",
      "0.5",
      "mg/dL",
      "0.2",
      "1.2",
      "8.55",
      8.55,
      "umol/L",
      3,
      21,
      "NORMAL",
      "Y",
      1,
      "SCREENING 1",
      "SCREENING",
      "2013-10-01T12:50",
      -7
    ],
    [
      "CDISCPILOT01",
      "LB",
      "CDISC004",
      7,
      "UREAN",
      "Urea Nitrogen",
      "CHEMISTRY",
      "14",
      "mg/dL",
      "4",
      "24",
      "4.998",
      4.998,
      "mmol/L",
      1.4,
      8.6,
      "NORMAL",
      "Y",
      1,
      "SCREENING 1",
      "SCREENING",
      "2013-10-01T12:50",
      -7
    ],
    [
      "CDISCPILOT01",
      "LB",
      "CDISC004",
      8,
      "CA",
      "Calcium",
      "CHEMISTRY",
      "9.6",
      "mg/dL",
      "8.4",
      "10.3",
      "2.3952",
      2.3952,
      "mmol/L",
      2.1,
      2.57,
      "NORMAL",
      "Y",
      1,
      "SCREENING 1",
      "SCREENING",
      "2013-10-01T12:50",
      -7
    ],
    [
      "CDISCPILOT01",
      "LB",
      "CDISC004",
      9,
      "CHOL",
      "Cholesterol",
      "CHEMISTRY",
      "227",
      "mg/dL",
      "156",
      "300",
      "5.87022",
      5.87022,
      "mmol/L",
      4.03,
      7.76,
      "NORMAL",
      "Y",
      1,
      "SCREENING 1",
      "SCREENING",
      "2013-10-01T12:50",
      -7
    ],
    [
      "CDISCPILOT01",
      "LB",
      "CDISC004",
      10,
      "CK",
      "Creatine Kinase",
      "CHEMISTRY",
      "142",
      "U/L",
      "21",
      "169",
      "142",
      142,
      "U/L",
      21,
      169,
      "NORMAL",
      "Y",
      1,
      "SCREENING 1",
      "SCREENING",
      "2013-10-01T12:50",
      -7
    ],
    [
      "CDISCPILOT01",
      "LB",
      "CDISC004",
      11,
      "CL",
      "Chloride",
      "CHEMISTRY",
      "104",
      "mEq/L",
      "94",
      "112",
      "104",
      104,
      "mmol/L",
      94,
      112,
      "NORMAL",
      "Y",
      1,
      "SCREENING 1",
      "SCREENING",
      "2013-10-01T12:50",
      -7
    ],
    [
      "CDISCPILOT01",
      "LB",
      "CDISC004",
      12,
      "COLOR",
      "Color",
      "URINALYSIS",
      "NORMAL",
      "",
      "",
      "",
      "NORMAL",
      null,
      "",
      null,
      null,
      "NORMAL",
      "Y",
      1,
      "SCREENING 1",
      "SCREENING",
      "2013-10-01T12:50",
      -7
    ],
    [
      "CDISCPILOT01",
      "LB",
      "CDISC004",
      13,
      "CREAT",
      "Creatinine",
      "CHEMISTRY",
      "1.1",
      "mg/dL",
      "0.7",
      "1.4",
      "97.24",
      97.24,
      "umol/L",
      62,
      124,
      "NORMAL",
      "Y",
      1,
      "SCREENING 1",
      "SCREENING",
      "2013-10-01T12:50",
      -7
    ],
    [
      "CDISCPILOT01",
      "LB",
      "CDISC004",
      14,
      "EOS",
      "Eosinophils",
      "HEMATOLOGY",
      "0.14",
      "10^9/L",
      "0",
      "0.57",
      "0.14",
      0.14,
      "10^9/L",
      0,
      0.57,
      "NORMAL",
      "Y",
      1,
      "SCREENING 1",
