{
    "datasets": [
        {
            "filename": "vs.xpt",
            "label": "Vital Signs",
            "domain": "VS",
            "variables": [
                {
                    "name": "STUDYID",
                    "label": "Study Identifier",
                    "type": "Char",
                    "length": 12
                },
                {
                    "name": "DOMAIN",
                    "label": "Domain Abbreviation",
                    "type": "Char",
                    "length": 2
                },
                {
                    "name": "USUBJID",
                    "label": "Unique Subject Identifier",
                    "type": "Char",
                    "length": 8
                },
                {
                    "name": "VSSEQ",
                    "label": "Sequence Number",
                    "type": "Num",
                    "length": 8
                },
                {
                    "name": "VSTESTCD",
                    "label": "Vital Signs Test Short Name",
                    "type": "Char",
                    "length": 6
                },
                {
                    "name": "VSTEST",
                    "label": "Vital Signs Test Name",
                    "type": "Char",
                    "length": 24
                },
                {
                    "name": "VSPOS",
                    "label": "Vital Signs Position of Subject",
                    "type": "Char",
                    "length": 8
                },
                {
                    "name": "VSORRES",
                    "label": "Result or Finding in Original Units",
                    "type": "Char",
                    "length": 8
                },
                {
                    "name": "VSORRESU",
                    "label": "Original Units",
                    "type": "Char",
                    "length": 9
                },
                {
                    "name": "VSSTRESC",
                    "label": "Character Result/Finding in Std Format",
                    "type": "Char",
                    "length": 200
                },
                {
                    "name": "VSSTRESN",
                    "label": "Numeric Result/Finding in Standard Units",
                    "type": "Num",
                    "length": 8
                },
                {
                    "name": "VSSTRESU",
                    "label": "Standard Units",
                    "type": "Char",
                    "length": 9
                },
                {
                    "name": "VSSTAT",
                    "label": "Completion Status",
                    "type": "Char",
                    "length": 8
                },
                {
                    "name": "VSLOC",
                    "label": "Location of Vital Signs Measurement",
                    "type": "Char",
                    "length": 11
                },
                {
                    "name": "VSLOBXFL",
                    "label": "Last Observation Before Exposure Flag",
                    "type": "Char",
                    "length": 1
                },
                {
                    "name": "VSREPNUM",
                    "label": "Repetition Number",
                    "type": "Num",
                    "length": 8
                },
                {
                    "name": "VISITNUM",
                    "label": "Visit Number",
                    "type": "Num",
                    "length": 8
                },
                {
                    "name": "VISIT",
                    "label": "Visit Name",
                    "type": "Char",
                    "length": 200
                },
                {
                    "name": "EPOCH",
                    "label": "Epoch",
                    "type": "Char",
                    "length": 9
                },
                {
                    "name": "VSDTC",
                    "label": "Date/Time of Measurements",
                    "type": "Char",
                    "length": 10
                },
                {
                    "name": "VSDY",
                    "label": "Study Day of Vital Signs",
                    "type": "Num",
                    "length": 8
                }
            ],
            "records": {
                "STUDYID": [
                    "CDISCPILOT01",
                    "CDISCPILOT01",
                    "CDISCPILOT01",
                    "CDISCPILOT01",
                    "CDISCPILOT01",
                    "CDISCPILOT01",
                    "CDISCPILOT01",
                    "CDISCPILOT01",
                    "CDISCPILOT01",
                    "CDISCPILOT01",
                    "CDISCPILOT01",
                    "CDISCPILOT01",
                    "CDISCPILOT01",
                    "CDISCPILOT01",
                    "CDISCPILOT01",
                    "CDISCPILOT01",
                    "CDISCPILOT01",
                    "CDISCPILOT01",
                    "CDISCPILOT01",
                    "CDISCPILOT01",
                    "CDISCPILOT01",
                    "CDISCPILOT01",
                    "CDISCPILOT01",
                    "CDISCPILOT01",
                    "CDISCPILOT01",
                    "CDISCPILOT01",
                    "CDISCPILOT01",
                    "CDISCPILOT01",
                    "CDISCPILOT01",
                    "CDISCPILOT01",
                    "CDISCPILOT01",
                    "CDISCPILOT01",
                    "CDISCPILOT01",
                    "CDISCPILOT01",
                    "CDISCPILOT01",
                    "CDISCPILOT01",
                    "CDISCPILOT01",
                    "CDISCPILOT01",
                    "CDISCPILOT01",
                    "CDISCPILOT01",
                    "CDISCPILOT01",
                    "CDISCPILOT01",
                    "CDISCPILOT01",
                    "CDISCPILOT01",
                    "CDISCPILOT01",
                    "CDISCPILOT01",
                    "CDISCPILOT01",
                    "CDISCPILOT01",
                    "CDISCPILOT01",
                    "CDISCPILOT01",
                    "CDISCPILOT01",
                    "CDISCPILOT01",
                    "CDISCPILOT01",
                    "CDISCPILOT01",
                    "CDISCPILOT01",
                    "CDISCPILOT01",
                    "CDISCPILOT01",
                    "CDISCPILOT01",
                    "CDISCPILOT01",
                    "CDISCPILOT01",
                    "CDISCPILOT01",
                    "CDISCPILOT01",
                    "CDISCPILOT01",
                    "CDISCPILOT01",
                    "CDISCPILOT01",
                    "CDISCPILOT01",
                    "CDISCPILOT01",
                    "CDISCPILOT01",
                    "CDISCPILOT01",
                    "CDISCPILOT01",
                    "CDISCPILOT01",
                    "CDISCPILOT01",
                    "CDISCPILOT01",
                    "CDISCPILOT01",
                    "CDISCPILOT01",
                    "CDISCPILOT01",
                    "CDISCPILOT01",
                    "CDISCPILOT01",
                    "CDISCPILOT01",
                    "CDISCPILOT01",
                    "CDISCPILOT01",
                    "CDISCPILOT01",
                    "CDISCPILOT01",
                    "CDISCPILOT01",
                    "CDISCPILOT01",
                    "CDISCPILOT01",
                    "CDISCPILOT01",
                    "CDISCPILOT01",
                    "CDISCPILOT01",
                    "CDISCPILOT01",
                    "CDISCPILOT01",
                    "CDISCPILOT01",
                    "CDISCPILOT01",
                    "CDISCPILOT01",
                    "CDISCPILOT01",
                    "CDISCPILOT01",
                    "CDISCPILOT01",
                    "CDISCPILOT01",
                    "CDISCPILOT01",
                    "CDISCPILOT01",
                    "CDISCPILOT01",
                    "CDISCPILOT01",
                    "CDISCPILOT01",
                    "CDISCPILOT01",
                    "CDISCPILOT01",
                    "CDISCPILOT01",
                    "CDISCPILOT01",
                    "CDISCPILOT01",
                    "CDISCPILOT01",
                    "CDISCPILOT01",
                    "CDISCPILOT01",
                    "CDISCPILOT01",
                    "CDISCPILOT01",
                    "CDISCPILOT01",
                    "CDISCPILOT01",
                    "CDISCPILOT01",
                    "CDISCPILOT01",
                    "CDISCPILOT01",
                    "CDISCPILOT01",
                    "CDISCPILOT01",
                    "CDISCPILOT01",
                    "CDISCPILOT01",
                    "CDISCPILOT01",
                    "CDISCPILOT01",
                    "CDISCPILOT01",
                    "CDISCPILOT01",
                    "CDISCPILOT01",
                    "CDISCPILOT01",
                    "CDISCPILOT01",
                    "CDISCPILOT01",
                    "CDISCPILOT01",
                    "CDISCPILOT01",
                    "CDISCPILOT01",
                    "CDISCPILOT01",
                    "CDISCPILOT01",
                    "CDISCPILOT01",
                    "CDISCPILOT01",
                    "CDISCPILOT01",
                    "CDISCPILOT01",
                    "CDISCPILOT01",
                    "CDISCPILOT01",
                    "CDISCPILOT01",
                    "CDISCPILOT01",
                    "CDISCPILOT01",
                    "CDISCPILOT01",
                    "CDISCPILOT01",
                    "CDISCPILOT01",
                    "CDISCPILOT01",
                    "CDISCPILOT01",
                    "CDISCPILOT01",
                    "CDISCPILOT01",
                    "CDISCPILOT01",
                    "CDISCPILOT01",
                    "CDISCPILOT01",
                    "CDISCPILOT01",
                    "CDISCPILOT01",
                    "CDISCPILOT01",
                    "CDISCPILOT01",
                    "CDISCPILOT01",
                    "CDISCPILOT01",
                    "CDISCPILOT01",
                    "CDISCPILOT01",
                    "CDISCPILOT01",
                    "CDISCPILOT01",
                    "CDISCPILOT01",
                    "CDISCPILOT01",
                    "CDISCPILOT01",
                    "CDISCPILOT01",
                    "CDISCPILOT01",
                    "CDISCPILOT01",
                    "CDISCPILOT01",
                    "CDISCPILOT01",
                    "CDISCPILOT01",
                    "CDISCPILOT01",
                    "CDISCPILOT01",
                    "CDISCPILOT01",
                    "CDISCPILOT01",
                    "CDISCPILOT01",
                    "CDISCPILOT01",
                    "CDISCPILOT01",
                    "CDISCPILOT01",
                    "CDISCPILOT01",
                    "CDISCPILOT01",
                    "CDISCPILOT01",
                    "CDISCPILOT01",
                    "CDISCPILOT01",
                    "CDISCPILOT01",
                    "CDISCPILOT01",
                    "CDISCPILOT01",
                    "CDISCPILOT01",
                    "CDISCPILOT01",
                    "CDISCPILOT01",
                    "CDISCPILOT01",
                    "CDISCPILOT01",
                    "CDISCPILOT01",
                    "CDISCPILOT01",
                    "CDISCPILOT01",
                    "CDISCPILOT01",
                    "CDISCPILOT01",
                    "CDISCPILOT01",
                    "CDISCPILOT01",
                    "CDISCPILOT01",
                    "CDISCPILOT01",
                    "CDISCPILOT01",
                    "CDISCPILOT01",
                    "CDISCPILOT01",
                    "CDISCPILOT01",
                    "CDISCPILOT01",
                    "CDISCPILOT01",
                    "CDISCPILOT01",
                    "CDISCPILOT01",
                    "CDISCPILOT01",
                    "CDISCPILOT01",
                    "CDISCPILOT01",
                    "CDISCPILOT01",
                    "CDISCPILOT01",
                    "CDISCPILOT01",
                    "CDISCPILOT01",
                    "CDISCPILOT01",
                    "CDISCPILOT01",
                    "CDISCPILOT01",
                    "CDISCPILOT01",
                    "CDISCPILOT01",
                    "CDISCPILOT01",
                    "CDISCPILOT01",
                    "CDISCPILOT01",
                    "CDISCPILOT01",
                    "CDISCPILOT01",
                    "CDISCPILOT01",
                    "CDISCPILOT01",
                    "CDISCPILOT01",
                    "CDISCPILOT01",
                    "CDISCPILOT01",
                    "CDISCPILOT01",
                    "CDISCPILOT01",
                    "CDISCPILOT01",
                    "CDISCPILOT01",
                    "CDISCPILOT01",
                    "CDISCPILOT01",
                    "CDISCPILOT01",
                    "CDISCPILOT01",
                    "CDISCPILOT01",
                    "CDISCPILOT01",
                    "CDISCPILOT01",
                    "CDISCPILOT01",
                    "CDISCPILOT01",
                    "CDISCPILOT01",
                    "CDISCPILOT01",
                    "CDISCPILOT01",
                    "CDISCPILOT01",
                    "CDISCPILOT01",
                    "CDISCPILOT01",
                    "CDISCPILOT01",
                    "CDISCPILOT01",
                    "CDISCPILOT01",
                    "CDISCPILOT01",
                    "CDISCPILOT01",
                    "CDISCPILOT01",
                    "CDISCPILOT01",
                    "CDISCPILOT01",
                    "CDISCPILOT01",
                    "CDISCPILOT01",
                    "CDISCPILOT01",
                    "CDISCPILOT01",
                    "CDISCPILOT01",
                    "CDISCPILOT01",
                    "CDISCPILOT01",
                    "CDISCPILOT01",
                    "CDISCPILOT01",
                    "CDISCPILOT01",
                    "CDISCPILOT01",
                    "CDISCPILOT01",
                    "CDISCPILOT01",
                    "CDISCPILOT01",
                    "CDISCPILOT01",
                    "CDISCPILOT01",
                    "CDISCPILOT01",
                    "CDISCPILOT01",
                    "CDISCPILOT01",
                    "CDISCPILOT01",
                    "CDISCPILOT01",
                    "CDISCPILOT01",
                    "CDISCPILOT01",
                    "CDISCPILOT01",
                    "CDISCPILOT01",
                    "CDISCPILOT01",
                    "CDISCPILOT01",
                    "CDISCPILOT01",
                    "CDISCPILOT01",
                    "CDISCPILOT01",
                    "CDISCPILOT01",
                    "CDISCPILOT01",
                    "CDISCPILOT01",
                    "CDISCPILOT01",
                    "CDISCPILOT01",
                    "CDISCPILOT01",
                    "CDISCPILOT01",
                    "CDISCPILOT01",
                    "CDISCPILOT01",
                    "CDISCPILOT01",
                    "CDISCPILOT01",
                    "CDISCPILOT01",
                    "CDISCPILOT01",
                    "CDISCPILOT01",
                    "CDISCPILOT01",
                    "CDISCPILOT01",
                    "CDISCPILOT01",
                    "CDISCPILOT01",
                    "CDISCPILOT01",
                    "CDISCPILOT01",
                    "CDISCPILOT01",
                    "CDISCPILOT01",
                    "CDISCPILOT01",
                    "CDISCPILOT01",
                    "CDISCPILOT01",
                    "CDISCPILOT01",
                    "CDISCPILOT01",
                    "CDISCPILOT01",
                    "CDISCPILOT01",
                    "CDISCPILOT01",
                    "CDISCPILOT01",
                    "CDISCPILOT01",
                    "CDISCPILOT01",
                    "CDISCPILOT01",
                    "CDISCPILOT01",
                    "CDISCPILOT01",
                    "CDISCPILOT01",
                    "CDISCPILOT01",
                    "CDISCPILOT01",
                    "CDISCPILOT01",
                    "CDISCPILOT01",
                    "CDISCPILOT01",
                    "CDISCPILOT01",
                    "CDISCPILOT01",
                    "CDISCPILOT01",
                    "CDISCPILOT01",
                    "CDISCPILOT01",
                    "CDISCPILOT01",
                    "CDISCPILOT01",
                    "CDISCPILOT01",
                    "CDISCPILOT01",
                    "CDISCPILOT01",
                    "CDISCPILOT01",
                    "CDISCPILOT01",
                    "CDISCPILOT01",
                    "CDISCPILOT01",
                    "CDISCPILOT01",
                    "CDISCPILOT01",
                    "CDISCPILOT01",
                    "CDISCPILOT01",
                    "CDISCPILOT01",
                    "CDISCPILOT01",
                    "CDISCPILOT01",
                    "CDISCPILOT01",
                    "CDISCPILOT01",
                    "CDISCPILOT01",
                    "CDISCPILOT01",
                    "CDISCPILOT01",
                    "CDISCPILOT01",
                    "CDISCPILOT01",
                    "CDISCPILOT01",
                    "CDISCPILOT01",
                    "CDISCPILOT01",
                    "CDISCPILOT01",
                    "CDISCPILOT01",
                    "CDISCPILOT01",
                    "CDISCPILOT01",
                    "CDISCPILOT01",
                    "CDISCPILOT01",
                    "CDISCPILOT01",
                    "CDISCPILOT01",
                    "CDISCPILOT01",
                    "CDISCPILOT01",
                    "CDISCPILOT01",
                    "CDISCPILOT01",
                    "CDISCPILOT01",
                    "CDISCPILOT01",
                    "CDISCPILOT01",
                    "CDISCPILOT01",
                    "CDISCPILOT01",
                    "CDISCPILOT01",
                    "CDISCPILOT01",
                    "CDISCPILOT01",
                    "CDISCPILOT01",
                    "CDISCPILOT01",
                    "CDISCPILOT01",
                    "CDISCPILOT01",
                    "CDISCPILOT01",
                    "CDISCPILOT01",
                    "CDISCPILOT01",
                    "CDISCPILOT01",
                    "CDISCPILOT01",
                    "CDISCPILOT01",
                    "CDISCPILOT01",
                    "CDISCPILOT01",
                    "CDISCPILOT01",
                    "CDISCPILOT01",
                    "CDISCPILOT01",
                    "CDISCPILOT01",
                    "CDISCPILOT01",
                    "CDISCPILOT01",
                    "CDISCPILOT01",
                    "CDISCPILOT01",
                    "CDISCPILOT01",
                    "CDISCPILOT01",
                    "CDISCPILOT01",
                    "CDISCPILOT01",
                    "CDISCPILOT01",
                    "CDISCPILOT01",
                    "CDISCPILOT01",
                    "CDISCPILOT01",
                    "CDISCPILOT01",
                    "CDISCPILOT01",
                    "CDISCPILOT01",
                    "CDISCPILOT01",
                    "CDISCPILOT01",
                    "CDISCPILOT01",
                    "CDISCPILOT01",
                    "CDISCPILOT01",
                    "CDISCPILOT01",
                    "CDISCPILOT01",
                    "CDISCPILOT01",
                    "CDISCPILOT01",
                    "CDISCPILOT01",
                    "CDISCPILOT01",
                    "CDISCPILOT01",
                    "CDISCPILOT01",
                    "CDISCPILOT01",
                    "CDISCPILOT01",
                    "CDISCPILOT01",
                    "CDISCPILOT01",
                    "CDISCPILOT01",
                    "CDISCPILOT01",
                    "CDISCPILOT01",
                    "CDISCPILOT01",
                    "CDISCPILOT01",
                    "CDISCPILOT01",
                    "CDISCPILOT01",
                    "CDISCPILOT01",
                    "CDISCPILOT01",
                    "CDISCPILOT01",
                    "CDISCPILOT01",
                    "CDISCPILOT01",
                    "CDISCPILOT01",
                    "CDISCPILOT01",
                    "CDISCPILOT01",
                    "CDISCPILOT01",
                    "CDISCPILOT01",
                    "CDISCPILOT01",
                    "CDISCPILOT01",
                    "CDISCPILOT01",
                    "CDISCPILOT01",
                    "CDISCPILOT01",
                    "CDISCPILOT01",
                    "CDISCPILOT01",
                    "CDISCPILOT01",
                    "CDISCPILOT01",
                    "CDISCPILOT01",
                    "CDISCPILOT01",
                    "CDISCPILOT01",
                    "CDISCPILOT01",
                    "CDISCPILOT01",
                    "CDISCPILOT01",
                    "CDISCPILOT01",
                    "CDISCPILOT01",
                    "CDISCPILOT01",
                    "CDISCPILOT01",
                    "CDISCPILOT01",
                    "CDISCPILOT01",
                    "CDISCPILOT01",
                    "CDISCPILOT01",
                    "CDISCPILOT01",
                    "CDISCPILOT01",
                    "CDISCPILOT01",
                    "CDISCPILOT01",
                    "CDISCPILOT01",
                    "CDISCPILOT01",
                    "CDISCPILOT01",
                    "CDISCPILOT01",
                    "CDISCPILOT01",
                    "CDISCPILOT01",
                    "CDISCPILOT01",
                    "CDISCPILOT01",
                    "CDISCPILOT01",
                    "CDISCPILOT01",
                    "CDISCPILOT01",
                    "CDISCPILOT01",
                    "CDISCPILOT01",
                    "CDISCPILOT01",
                    "CDISCPILOT01",
                    "CDISCPILOT01",
                    "CDISCPILOT01",
                    "CDISCPILOT01",
                    "CDISCPILOT01",
                    "CDISCPILOT01",
                    "CDISCPILOT01",
                    "CDISCPILOT01",
                    "CDISCPILOT01",
                    "CDISCPILOT01",
                    "CDISCPILOT01",
                    "CDISCPILOT01",
                    "CDISCPILOT01",
                    "CDISCPILOT01",
                    "CDISCPILOT01",
                    "CDISCPILOT01",
                    "CDISCPILOT01",
                    "CDISCPILOT01",
                    "CDISCPILOT01",
                    "CDISCPILOT01",
                    "CDISCPILOT01",
                    "CDISCPILOT01",
                    "CDISCPILOT01",
                    "CDISCPILOT01",
                    "CDISCPILOT01",
                    "CDISCPILOT01",
                    "CDISCPILOT01",
                    "CDISCPILOT01",
                    "CDISCPILOT01",
                    "CDISCPILOT01",
                    "CDISCPILOT01",
                    "CDISCPILOT01",
                    "CDISCPILOT01",
                    "CDISCPILOT01",
                    "CDISCPILOT01",
                    "CDISCPILOT01",
                    "CDISCPILOT01",
                    "CDISCPILOT01",
                    "CDISCPILOT01",
                    "CDISCPILOT01",
                    "CDISCPILOT01",
                    "CDISCPILOT01",
                    "CDISCPILOT01",
                    "CDISCPILOT01",
                    "CDISCPILOT01",
                    "CDISCPILOT01",
                    "CDISCPILOT01",
                    "CDISCPILOT01",
                    "CDISCPILOT01",
                    "CDISCPILOT01",
                    "CDISCPILOT01",
                    "CDISCPILOT01",
                    "CDISCPILOT01",
                    "CDISCPILOT01",
                    "CDISCPILOT01",
                    "CDISCPILOT01",
                    "CDISCPILOT01",
                    "CDISCPILOT01",
                    "CDISCPILOT01",
                    "CDISCPILOT01",
                    "CDISCPILOT01",
                    "CDISCPILOT01",
                    "CDISCPILOT01",
                    "CDISCPILOT01",
                    "CDISCPILOT01",
                    "CDISCPILOT01",
                    "CDISCPILOT01",
                    "CDISCPILOT01",
                    "CDISCPILOT01",
                    "CDISCPILOT01",
                    "CDISCPILOT01",
                    "CDISCPILOT01",
                    "CDISCPILOT01",
                    "CDISCPILOT01",
                    "CDISCPILOT01",
                    "CDISCPILOT01",
                    "CDISCPILOT01",
                    "CDISCPILOT01",
                    "CDISCPILOT01",
                    "CDISCPILOT01",
                    "CDISCPILOT01",
                    "CDISCPILOT01",
                    "CDISCPILOT01",
                    "CDISCPILOT01",
                    "CDISCPILOT01",
                    "CDISCPILOT01",
                    "CDISCPILOT01",
                    "CDISCPILOT01",
                    "CDISCPILOT01",
                    "CDISCPILOT01",
                    "CDISCPILOT01",
                    "CDISCPILOT01",
                    "CDISCPILOT01",
                    "CDISCPILOT01",
                    "CDISCPILOT01",
                    "CDISCPILOT01",
                    "CDISCPILOT01",
                    "CDISCPILOT01",
                    "CDISCPILOT01",
                    "CDISCPILOT01",
                    "CDISCPILOT01",
                    "CDISCPILOT01",
                    "CDISCPILOT01",
                    "CDISCPILOT01",
                    "CDISCPILOT01",
                    "CDISCPILOT01",
                    "CDISCPILOT01",
                    "CDISCPILOT01",
                    "CDISCPILOT01",
                    "CDISCPILOT01",
                    "CDISCPILOT01",
                    "CDISCPILOT01",
                    "CDISCPILOT01",
                    "CDISCPILOT01",
                    "CDISCPILOT01",
                    "CDISCPILOT01",
                    "CDISCPILOT01",
                    "CDISCPILOT01",
                    "CDISCPILOT01",
                    "CDISCPILOT01",
                    "CDISCPILOT01",
                    "CDISCPILOT01",
                    "CDISCPILOT01",
                    "CDISCPILOT01",
                    "CDISCPILOT01",
                    "CDISCPILOT01",
                    "CDISCPILOT01",
                    "CDISCPILOT01",
                    "CDISCPILOT01",
                    "CDISCPILOT01",
                    "CDISCPILOT01",
                    "CDISCPILOT01",
                    "CDISCPILOT01",
                    "CDISCPILOT01",
                    "CDISCPILOT01",
                    "CDISCPILOT01",
                    "CDISCPILOT01",
                    "CDISCPILOT01",
                    "CDISCPILOT01",
                    "CDISCPILOT01",
                    "CDISCPILOT01",
                    "CDISCPILOT01",
                    "CDISCPILOT01",
                    "CDISCPILOT01",
                    "CDISCPILOT01",
                    "CDISCPILOT01",
                    "CDISCPILOT01",
                    "CDISCPILOT01",
                    "CDISCPILOT01",
                    "CDISCPILOT01",
                    "CDISCPILOT01",
                    "CDISCPILOT01",
                    "CDISCPILOT01",
                    "CDISCPILOT01",
                    "CDISCPILOT01",
                    "CDISCPILOT01",
                    "CDISCPILOT01",
                    "CDISCPILOT01",
                    "CDISCPILOT01",
                    "CDISCPILOT01",
                    "CDISCPILOT01",
                    "CDISCPILOT01",
                    "CDISCPILOT01",
                    "CDISCPILOT01",
                    "CDISCPILOT01",
                    "CDISCPILOT01",
                    "CDISCPILOT01",
                    "CDISCPILOT01",
                    "CDISCPILOT01",
                    "CDISCPILOT01",
                    "CDISCPILOT01",
                    "CDISCPILOT01",
                    "CDISCPILOT01",
                    "CDISCPILOT01",
                    "CDISCPILOT01",
                    "CDISCPILOT01",
                    "CDISCPILOT01",
                    "CDISCPILOT01",
                    "CDISCPILOT01",
                    "CDISCPILOT01",
                    "CDISCPILOT01",
                    "CDISCPILOT01",
                    "CDISCPILOT01",
                    "CDISCPILOT01",
                    "CDISCPILOT01",
                    "CDISCPILOT01",
                    "CDISCPILOT01",
                    "CDISCPILOT01",
                    "CDISCPILOT01",
                    "CDISCPILOT01",
                    "CDISCPILOT01",
                    "CDISCPILOT01",
                    "CDISCPILOT01",
                    "CDISCPILOT01",
                    "CDISCPILOT01",
                    "CDISCPILOT01",
                    "CDISCPILOT01",
                    "CDISCPILOT01",
                    "CDISCPILOT01",
                    "CDISCPILOT01",
                    "CDISCPILOT01",
                    "CDISCPILOT01",
                    "CDISCPILOT01",
                    "CDISCPILOT01",
                    "CDISCPILOT01",
                    "CDISCPILOT01",
                    "CDISCPILOT01",
                    "CDISCPILOT01",
                    "CDISCPILOT01",
                    "CDISCPILOT01",
                    "CDISCPILOT01",
                    "CDISCPILOT01",
                    "CDISCPILOT01",
                    "CDISCPILOT01",
                    "CDISCPILOT01",
                    "CDISCPILOT01",
                    "CDISCPILOT01",
                    "CDISCPILOT01",
                    "CDISCPILOT01",
                    "CDISCPILOT01",
                    "CDISCPILOT01",
                    "CDISCPILOT01",
                    "CDISCPILOT01",
                    "CDISCPILOT01",
                    "CDISCPILOT01",
                    "CDISCPILOT01",
                    "CDISCPILOT01",
                    "CDISCPILOT01",
                    "CDISCPILOT01",
                    "CDISCPILOT01",
                    "CDISCPILOT01",
                    "CDISCPILOT01",
                    "CDISCPILOT01",
                    "CDISCPILOT01",
                    "CDISCPILOT01",
                    "CDISCPILOT01",
                    "CDISCPILOT01",
                    "CDISCPILOT01",
                    "CDISCPILOT01",
                    "CDISCPILOT01",
                    "CDISCPILOT01",
                    "CDISCPILOT01",
                    "CDISCPILOT01",
                    "CDISCPILOT01",
                    "CDISCPILOT01",
                    "CDISCPILOT01",
                    "CDISCPILOT01",
                    "CDISCPILOT01",
                    "CDISCPILOT01",
                    "CDISCPILOT01",
                    "CDISCPILOT01",
                    "CDISCPILOT01",
                    "CDISCPILOT01",
                    "CDISCPILOT01",
                    "CDISCPILOT01",
                    "CDISCPILOT01",
                    "CDISCPILOT01",
                    "CDISCPILOT01",
                    "CDISCPILOT01",
                    "CDISCPILOT01",
                    "CDISCPILOT01",
                    "CDISCPILOT01",
                    "CDISCPILOT01",
                    "CDISCPILOT01",
                    "CDISCPILOT01",
                    "CDISCPILOT01",
                    "CDISCPILOT01",
                    "CDISCPILOT01",
                    "CDISCPILOT01",
                    "CDISCPILOT01",
                    "CDISCPILOT01",
                    "CDISCPILOT01",
                    "CDISCPILOT01",
                    "CDISCPILOT01",
                    "CDISCPILOT01",
                    "CDISCPILOT01",
                    "CDISCPILOT01",
                    "CDISCPILOT01",
                    "CDISCPILOT01",
                    "CDISCPILOT01",
                    "CDISCPILOT01",
                    "CDISCPILOT01",
                    "CDISCPILOT01",
                    "CDISCPILOT01",
                    "CDISCPILOT01",
                    "CDISCPILOT01",
                    "CDISCPILOT01",
                    "CDISCPILOT01",
                    "CDISCPILOT01",
                    "CDISCPILOT01",
                    "CDISCPILOT01",
                    "CDISCPILOT01",
                    "CDISCPILOT01",
                    "CDISCPILOT01",
                    "CDISCPILOT01",
                    "CDISCPILOT01",
                    "CDISCPILOT01",
                    "CDISCPILOT01",
                    "CDISCPILOT01",
                    "CDISCPILOT01",
                    "CDISCPILOT01",
                    "CDISCPILOT01",
                    "CDISCPILOT01",
                    "CDISCPILOT01",
                    "CDISCPILOT01",
                    "CDISCPILOT01",
                    "CDISCPILOT01",
                    "CDISCPILOT01",
                    "CDISCPILOT01",
                    "CDISCPILOT01",
                    "CDISCPILOT01",
                    "CDISCPILOT01",
                    "CDISCPILOT01",
                    "CDISCPILOT01",
                    "CDISCPILOT01",
                    "CDISCPILOT01",
                    "CDISCPILOT01",
                    "CDISCPILOT01",
                    "CDISCPILOT01",
                    "CDISCPILOT01",
                    "CDISCPILOT01",
                    "CDISCPILOT01",
                    "CDISCPILOT01",
                    "CDISCPILOT01",
                    "CDISCPILOT01",
                    "CDISCPILOT01",
                    "CDISCPILOT01",
                    "CDISCPILOT01",
                    "CDISCPILOT01",
                    "CDISCPILOT01",
                    "CDISCPILOT01",
                    "CDISCPILOT01",
                    "CDISCPILOT01",
                    "CDISCPILOT01",
                    "CDISCPILOT01",
                    "CDISCPILOT01",
                    "CDISCPILOT01",
                    "CDISCPILOT01",
                    "CDISCPILOT01",
                    "CDISCPILOT01",
                    "CDISCPILOT01",
                    "CDISCPILOT01",
                    "CDISCPILOT01",
                    "CDISCPILOT01",
                    "CDISCPILOT01",
                    "CDISCPILOT01",
                    "CDISCPILOT01",
                    "CDISCPILOT01",
                    "CDISCPILOT01",
                    "CDISCPILOT01",
                    "CDISCPILOT01",
                    "CDISCPILOT01",
                    "CDISCPILOT01",
                    "CDISCPILOT01",
                    "CDISCPILOT01",
                    "CDISCPILOT01",
                    "CDISCPILOT01",
                    "CDISCPILOT01",
                    "CDISCPILOT01",
                    "CDISCPILOT01",
                    "CDISCPILOT01",
                    "CDISCPILOT01",
                    "CDISCPILOT01",
                    "CDISCPILOT01",
                    "CDISCPILOT01",
                    "CDISCPILOT01",
                    "CDISCPILOT01",
                    "CDISCPILOT01",
                    "CDISCPILOT01",
                    "CDISCPILOT01",
                    "CDISCPILOT01",
                    "CDISCPILOT01",
                    "CDISCPILOT01",
                    "CDISCPILOT01",
                    "CDISCPILOT01",
                    "CDISCPILOT01",
                    "CDISCPILOT01",
                    "CDISCPILOT01",
                    "CDISCPILOT01",
                    "CDISCPILOT01",
                    "CDISCPILOT01",
                    "CDISCPILOT01",
                    "CDISCPILOT01",
                    "CDISCPILOT01",
                    "CDISCPILOT01",
                    "CDISCPILOT01",
                    "CDISCPILOT01",
                    "CDISCPILOT01",
                    "CDISCPILOT01",
                    "CDISCPILOT01",
                    "CDISCPILOT01",
                    "CDISCPILOT01",
                    "CDISCPILOT01",
                    "CDISCPILOT01",
                    "CDISCPILOT01",
                    "CDISCPILOT01",
                    "CDISCPILOT01",
                    "CDISCPILOT01",
                    "CDISCPILOT01",
                    "CDISCPILOT01",
                    "CDISCPILOT01",
                    "CDISCPILOT01",
                    "CDISCPILOT01",
                    "CDISCPILOT01",
                    "CDISCPILOT01",
                    "CDISCPILOT01",
                    "CDISCPILOT01",
                    "CDISCPILOT01",
                    "CDISCPILOT01",
                    "CDISCPILOT01",
                    "CDISCPILOT01",
                    "CDISCPILOT01",
                    "CDISCPILOT01",
                    "CDISCPILOT01",
                    "CDISCPILOT01",
                    "CDISCPILOT01",
                    "CDISCPILOT01",
                    "CDISCPILOT01",
                    "CDISCPILOT01",
                    "CDISCPILOT01",
                    "CDISCPILOT01",
                    "CDISCPILOT01",
                    "CDISCPILOT01",
                    "CDISCPILOT01",
                    "CDISCPILOT01",
                    "CDISCPILOT01",
                    "CDISCPILOT01",
                    "CDISCPILOT01",
                    "CDISCPILOT01",
                    "CDISCPILOT01",
                    "CDISCPILOT01",
                    "CDISCPILOT01",
                    "CDISCPILOT01",
                    "CDISCPILOT01",
                    "CDISCPILOT01",
                    "CDISCPILOT01",
                    "CDISCPILOT01",
                    "CDISCPILOT01",
                    "CDISCPILOT01",
                    "CDISCPILOT01",
                    "CDISCPILOT01",
                    "CDISCPILOT01",
                    "CDISCPILOT01",
                    "CDISCPILOT01",
                    "CDISCPILOT01",
                    "CDISCPILOT01",
                    "CDISCPILOT01",
                    "CDISCPILOT01",
                    "CDISCPILOT01",
                    "CDISCPILOT01",
                    "CDISCPILOT01",
                    "CDISCPILOT01",
                    "CDISCPILOT01",
                    "CDISCPILOT01",
                    "CDISCPILOT01",
                    "CDISCPILOT01",
                    "CDISCPILOT01",
                    "CDISCPILOT01",
                    "CDISCPILOT01",
                    "CDISCPILOT01",
                    "CDISCPILOT01",
                    "CDISCPILOT01",
                    "CDISCPILOT01",
                    "CDISCPILOT01",
                    "CDISCPILOT01",
                    "CDISCPILOT01",
                    "CDISCPILOT01",
                    "CDISCPILOT01",
                    "CDISCPILOT01",
                    "CDISCPILOT01",
                    "CDISCPILOT01",
                    "CDISCPILOT01",
                    "CDISCPILOT01",
                    "CDISCPILOT01",
                    "CDISCPILOT01",
                    "CDISCPILOT01",
                    "CDISCPILOT01",
                    "CDISCPILOT01",
                    "CDISCPILOT01",
                    "CDISCPILOT01",
                    "CDISCPILOT01",
                    "CDISCPILOT01",
                    "CDISCPILOT01",
                    "CDISCPILOT01",
                    "CDISCPILOT01",
                    "CDISCPILOT01",
                    "CDISCPILOT01",
                    "CDISCPILOT01",
                    "CDISCPILOT01",
                    "CDISCPILOT01",
                    "CDISCPILOT01",
                    "CDISCPILOT01",
                    "CDISCPILOT01",
                    "CDISCPILOT01",
                    "CDISCPILOT01",
                    "CDISCPILOT01",
                    "CDISCPILOT01",
                    "CDISCPILOT01",
                    "CDISCPILOT01",
                    "CDISCPILOT01",
                    "CDISCPILOT01",
                    "CDISCPILOT01",
                    "CDISCPILOT01",
                    "CDISCPILOT01",
                    "CDISCPILOT01",
                    "CDISCPILOT01",
                    "CDISCPILOT01",
                    "CDISCPILOT01",
                    "CDISCPILOT01",
                    "CDISCPILOT01",
                    "CDISCPILOT01",
                    "CDISCPILOT01",
                    "CDISCPILOT01",
                    "CDISCPILOT01",
                    "CDISCPILOT01",
                    "CDISCPILOT01",
                    "CDISCPILOT01",
                    "CDISCPILOT01",
                    "CDISCPILOT01",
                    "CDISCPILOT01",
                    "CDISCPILOT01",
                    "CDISCPILOT01",
                    "CDISCPILOT01",
                    "CDISCPILOT01",
                    "CDISCPILOT01",
                    "CDISCPILOT01",
                    "CDISCPILOT01",
                    "CDISCPILOT01",
                    "CDISCPILOT01",
                    "CDISCPILOT01",
                    "CDISCPILOT01",
                    "CDISCPILOT01",
                    "CDISCPILOT01",
                    "CDISCPILOT01",
                    "CDISCPILOT01",
                    "CDISCPILOT01",
                    "CDISCPILOT01",
                    "CDISCPILOT01",
                    "CDISCPILOT01",
                    "CDISCPILOT01",
                    "CDISCPILOT01",
                    "CDISCPILOT01",
                    "CDISCPILOT01",
                    "CDISCPILOT01",
                    "CDISCPILOT01",
                    "CDISCPILOT01",
                    "CDISCPILOT01",
                    "CDISCPILOT01",
                    "CDISCPILOT01",
                    "CDISCPILOT01",
                    "CDISCPILOT01",
                    "CDISCPILOT01",
                    "CDISCPILOT01",
                    "CDISCPILOT01",
                    "CDISCPILOT01",
                    "CDISCPILOT01",
                    "CDISCPILOT01",
                    "CDISCPILOT01",
                    "CDISCPILOT01",
                    "CDISCPILOT01",
                    "CDISCPILOT01",
                    "CDISCPILOT01",
                    "CDISCPILOT01",
                    "CDISCPILOT01",
                    "CDISCPILOT01",
                    "CDISCPILOT01",
                    "CDISCPILOT01",
                    "CDISCPILOT01",
                    "CDISCPILOT01",
                    "CDISCPILOT01",
                    "CDISCPILOT01",
                    "CDISCPILOT01",
                    "CDISCPILOT01",
                    "CDISCPILOT01",
                    "CDISCPILOT01",
                    "CDISCPILOT01",
                    "CDISCPILOT01",
                    "CDISCPILOT01",
                    "CDISCPILOT01",
                    "CDISCPILOT01",
                    "CDISCPILOT01",
                    "CDISCPILOT01",
                    "CDISCPILOT01",
                    "CDISCPILOT01",
                    "CDISCPILOT01",
                    "CDISCPILOT01",
                    "CDISCPILOT01",
                    "CDISCPILOT01",
                    "CDISCPILOT01",
                    "CDISCPILOT01",
                    "CDISCPILOT01",
                    "CDISCPILOT01",
                    "CDISCPILOT01",
                    "CDISCPILOT01",
                    "CDISCPILOT01",
                    "CDISCPILOT01",
                    "CDISCPILOT01",
                    "CDISCPILOT01",
                    "CDISCPILOT01",
                    "CDISCPILOT01",
                    "CDISCPILOT01",
                    "CDISCPILOT01",
                    "CDISCPILOT01",
                    "CDISCPILOT01",
                    "CDISCPILOT01",
                    "CDISCPILOT01",
                    "CDISCPILOT01",
                    "CDISCPILOT01",
                    "CDISCPILOT01",
                    "CDISCPILOT01",
                    "CDISCPILOT01",
                    "CDISCPILOT01",
                    "CDISCPILOT01",
                    "CDISCPILOT01",
                    "CDISCPILOT01",
                    "CDISCPILOT01",
                    "CDISCPILOT01",
                    "CDISCPILOT01",
                    "CDISCPILOT01",
                    "CDISCPILOT01",
                    "CDISCPILOT01",
                    "CDISCPILOT01",
                    "CDISCPILOT01",
                    "CDISCPILOT01",
                    "CDISCPILOT01",
                    "CDISCPILOT01",
                    "CDISCPILOT01",
                    "CDISCPILOT01",
                    "CDISCPILOT01",
                    "CDISCPILOT01",
                    "CDISCPILOT01",
                    "CDISCPILOT01",
                    "CDISCPILOT01",
                    "CDISCPILOT01",
                    "CDISCPILOT01",
                    "CDISCPILOT01",
                    "CDISCPILOT01",
                    "CDISCPILOT01",
                    "CDISCPILOT01",
                    "CDISCPILOT01",
                    "CDISCPILOT01",
                    "CDISCPILOT01",
                    "CDISCPILOT01",
                    "CDISCPILOT01",
                    "CDISCPILOT01",
                    "CDISCPILOT01",
                    "CDISCPILOT01",
                    "CDISCPILOT01",
                    "CDISCPILOT01",
                    "CDISCPILOT01",
                    "CDISCPILOT01",
                    "CDISCPILOT01",
                    "CDISCPILOT01",
                    "CDISCPILOT01",
                    "CDISCPILOT01",
                    "CDISCPILOT01",
                    "CDISCPILOT01",
                    "CDISCPILOT01",
                    "CDISCPILOT01",
                    "CDISCPILOT01",
                    "CDISCPILOT01",
                    "CDISCPILOT01",
                    "CDISCPILOT01",
                    "CDISCPILOT01",
                    "CDISCPILOT01",
                    "CDISCPILOT01",
                    "CDISCPILOT01",
                    "CDISCPILOT01",
                    "CDISCPILOT01",
                    "CDISCPILOT01",
                    "CDISCPILOT01",
                    "CDISCPILOT01",
                    "CDISCPILOT01",
                    "CDISCPILOT01",
                    "CDISCPILOT01",
                    "CDISCPILOT01",
                    "CDISCPILOT01",
                    "CDISCPILOT01",
                    "CDISCPILOT01",
                    "CDISCPILOT01",
                    "CDISCPILOT01",
                    "CDISCPILOT01",
                    "CDISCPILOT01",
                    "CDISCPILOT01",
                    "CDISCPILOT01",
                    "CDISCPILOT01",
                    "CDISCPILOT01",
                    "CDISCPILOT01",
                    "CDISCPILOT01",
                    "CDISCPILOT01",
                    "CDISCPILOT01",
                    "CDISCPILOT01",
                    "CDISCPILOT01",
                    "CDISCPILOT01",
                    "CDISCPILOT01",
                    "CDISCPILOT01",
                    "CDISCPILOT01",
                    "CDISCPILOT01",
                    "CDISCPILOT01",
                    "CDISCPILOT01",
                    "CDISCPILOT01",
                    "CDISCPILOT01",
                    "CDISCPILOT01",
                    "CDISCPILOT01",
                    "CDISCPILOT01",
                    "CDISCPILOT01",
                    "CDISCPILOT01",
                    "CDISCPILOT01",
                    "CDISCPILOT01",
                    "CDISCPILOT01",
                    "CDISCPILOT01",
                    "CDISCPILOT01",
                    "CDISCPILOT01",
                    "CDISCPILOT01",
                    "CDISCPILOT01",
                    "CDISCPILOT01",
                    "CDISCPILOT01",
                    "CDISCPILOT01",
                    "CDISCPILOT01",
                    "CDISCPILOT01",
                    "CDISCPILOT01",
                    "CDISCPILOT01",
                    "CDISCPILOT01",
                    "CDISCPILOT01",
                    "CDISCPILOT01",
                    "CDISCPILOT01",
                    "CDISCPILOT01",
                    "CDISCPILOT01",
                    "CDISCPILOT01",
                    "CDISCPILOT01",
                    "CDISCPILOT01",
                    "CDISCPILOT01",
                    "CDISCPILOT01",
                    "CDISCPILOT01",
                    "CDISCPILOT01",
                    "CDISCPILOT01",
                    "CDISCPILOT01",
                    "CDISCPILOT01",
                    "CDISCPILOT01",
                    "CDISCPILOT01",
                    "CDISCPILOT01",
                    "CDISCPILOT01",
                    "CDISCPILOT01",
                    "CDISCPILOT01",
                    "CDISCPILOT01",
                    "CDISCPILOT01",
                    "CDISCPILOT01",
                    "CDISCPILOT01",
                    "CDISCPILOT01",
                    "CDISCPILOT01",
                    "CDISCPILOT01",
                    "CDISCPILOT01",
                    "CDISCPILOT01",
                    "CDISCPILOT01",
                    "CDISCPILOT01",
                    "CDISCPILOT01",
                    "CDISCPILOT01",
                    "CDISCPILOT01",
                    "CDISCPILOT01",
                    "CDISCPILOT01",
                    "CDISCPILOT01",
                    "CDISCPILOT01",
                    "CDISCPILOT01",
                    "CDISCPILOT01",
                    "CDISCPILOT01",
                    "CDISCPILOT01",
                    "CDISCPILOT01",
                    "CDISCPILOT01",
                    "CDISCPILOT01",
                    "CDISCPILOT01",
                    "CDISCPILOT01",
                    "CDISCPILOT01",
                    "CDISCPILOT01",
                    "CDISCPILOT01",
                    "CDISCPILOT01",
                    "CDISCPILOT01",
                    "CDISCPILOT01",
                    "CDISCPILOT01",
                    "CDISCPILOT01",
                    "CDISCPILOT01",
                    "CDISCPILOT01",
                    "CDISCPILOT01",
                    "CDISCPILOT01",
                    "CDISCPILOT01",
                    "CDISCPILOT01",
                    "CDISCPILOT01",
                    "CDISCPILOT01",
                    "CDISCPILOT01",
                    "CDISCPILOT01",
                    "CDISCPILOT01",
                    "CDISCPILOT01",
                    "CDISCPILOT01",
                    "CDISCPILOT01",
                    "CDISCPILOT01",
                    "CDISCPILOT01",
                    "CDISCPILOT01",
                    "CDISCPILOT01",
                    "CDISCPILOT01",
                    "CDISCPILOT01",
                    "CDISCPILOT01",
                    "CDISCPILOT01",
                    "CDISCPILOT01",
                    "CDISCPILOT01",
                    "CDISCPILOT01",
                    "CDISCPILOT01",
                    "CDISCPILOT01",
                    "CDISCPILOT01",
                    "CDISCPILOT01",
                    "CDISCPILOT01",
                    "CDISCPILOT01",
                    "CDISCPILOT01",
                    "CDISCPILOT01",
                    "CDISCPILOT01",
                    "CDISCPILOT01",
                    "CDISCPILOT01",
                    "CDISCPILOT01",
                    "CDISCPILOT01",
                    "CDISCPILOT01",
                    "CDISCPILOT01",
                    "CDISCPILOT01",
                    "CDISCPILOT01",
                    "CDISCPILOT01",
                    "CDISCPILOT01",
                    "CDISCPILOT01",
                    "CDISCPILOT01",
                    "CDISCPILOT01",
                    "CDISCPILOT01",
                    "CDISCPILOT01",
                    "CDISCPILOT01",
                    "CDISCPILOT01",
                    "CDISCPILOT01",
                    "CDISCPILOT01",
                    "CDISCPILOT01",
                    "CDISCPILOT01",
                    "CDISCPILOT01",
                    "CDISCPILOT01",
                    "CDISCPILOT01",
                    "CDISCPILOT01",
                    "CDISCPILOT01",
                    "CDISCPILOT01",
                    "CDISCPILOT01",
                    "CDISCPILOT01",
                    "CDISCPILOT01",
                    "CDISCPILOT01",
                    "CDISCPILOT01",
                    "CDISCPILOT01",
                    "CDISCPILOT01",
                    "CDISCPILOT01",
                    "CDISCPILOT01",
                    "CDISCPILOT01",
                    "CDISCPILOT01",
                    "CDISCPILOT01",
                    "CDISCPILOT01",
                    "CDISCPILOT01",
                    "CDISCPILOT01",
                    "CDISCPILOT01",
                    "CDISCPILOT01",
                    "CDISCPILOT01",
                    "CDISCPILOT01",
                    "CDISCPILOT01",
                    "CDISCPILOT01",
                    "CDISCPILOT01",
                    "CDISCPILOT01",
                    "CDISCPILOT01",
                    "CDISCPILOT01",
                    "CDISCPILOT01",
                    "CDISCPILOT01",
                    "CDISCPILOT01",
                    "CDISCPILOT01",
                    "CDISCPILOT01",
                    "CDISCPILOT01",
                    "CDISCPILOT01",
                    "CDISCPILOT01",
                    "CDISCPILOT01",
                    "CDISCPILOT01",
                    "CDISCPILOT01",
                    "CDISCPILOT01",
                    "CDISCPILOT01",
                    "CDISCPILOT01",
                    "CDISCPILOT01",
                    "CDISCPILOT01",
                    "CDISCPILOT01",
                    "CDISCPILOT01",
                    "CDISCPILOT01",
                    "CDISCPILOT01",
                    "CDISCPILOT01",
                    "CDISCPILOT01",
                    "CDISCPILOT01",
                    "CDISCPILOT01",
                    "CDISCPILOT01",
                    "CDISCPILOT01",
                    "CDISCPILOT01",
                    "CDISCPILOT01",
                    "CDISCPILOT01",
                    "CDISCPILOT01",
                    "CDISCPILOT01",
                    "CDISCPILOT01",
                    "CDISCPILOT01",
                    "CDISCPILOT01",
                    "CDISCPILOT01",
                    "CDISCPILOT01",
                    "CDISCPILOT01",
                    "CDISCPILOT01",
                    "CDISCPILOT01",
                    "CDISCPILOT01",
                    "CDISCPILOT01",
                    "CDISCPILOT01",
                    "CDISCPILOT01",
                    "CDISCPILOT01",
                    "CDISCPILOT01",
                    "CDISCPILOT01",
                    "CDISCPILOT01",
                    "CDISCPILOT01",
                    "CDISCPILOT01",
                    "CDISCPILOT01",
                    "CDISCPILOT01",
                    "CDISCPILOT01",
                    "CDISCPILOT01",
                    "CDISCPILOT01",
                    "CDISCPILOT01",
                    "CDISCPILOT01",
                    "CDISCPILOT01",
                    "CDISCPILOT01",
                    "CDISCPILOT01",
                    "CDISCPILOT01",
                    "CDISCPILOT01",
                    "CDISCPILOT01",
                    "CDISCPILOT01"
                ],
                "DOMAIN": [
                    "VS",
                    "VS",
                    "VS",
                    "VS",
                    "VS",
                    "VS",
                    "VS",
                    "VS",
                    "VS",
                    "VS",
                    "VS",
                    "VS",
                    "VS",
                    "VS",
                    "VS",
                    "VS",
                    "VS",
                    "VS",
                    "VS",
                    "VS",
                    "VS",
                    "VS",
                    "VS",
                    "VS",
                    "VS",
                    "VS",
                    "VS",
                    "VS",
                    "VS",
                    "VS",
                    "VS",
                    "VS",
                    "VS",
                    "VS",
                    "VS",
                    "VS",
                    "VS",
                    "VS",
                    "VS",
                    "VS",
                    "VS",
                    "VS",
                    "VS",
                    "VS",
                    "VS",
                    "VS",
                    "VS",
                    "VS",
                    "VS",
                    "VS",
                    "VS",
                    "VS",
                    "VS",
                    "VS",
                    "VS",
                    "VS",
                    "VS",
                    "VS",
                    "VS",
                    "VS",
                    "VS",
                    "VS",
                    "VS",
                    "VS",
                    "VS",
                    "VS",
                    "VS",
                    "VS",
                    "VS",
                    "VS",
                    "VS",
                    "VS",
                    "VS",
                    "VS",
                    "VS",
                    "VS",
                    "VS",
                    "VS",
                    "VS",
                    "VS",
                    "VS",
                    "VS",
                    "VS",
                    "VS",
                    "VS",
                    "VS",
                    "VS",
                    "VS",
                    "VS",
                    "VS",
                    "VS",
                    "VS",
                    "VS",
                    "VS",
                    "VS",
                    "VS",
                    "VS",
                    "VS",
                    "VS",
                    "VS",
                    "VS",
                    "VS",
                    "VS",
                    "VS",
                    "VS",
                    "VS",
                    "VS",
                    "VS",
                    "VS",
                    "VS",
                    "VS",
                    "VS",
                    "VS",
                    "VS",
                    "VS",
                    "VS",
                    "VS",
                    "VS",
                    "VS",
                    "VS",
                    "VS",
                    "VS",
                    "VS",
                    "VS",
                    "VS",
                    "VS",
                    "VS",
                    "VS",
                    "VS",
                    "VS",
                    "VS",
                    "VS",
                    "VS",
                    "VS",
                    "VS",
                    "VS",
                    "VS",
                    "VS",
                    "VS",
                    "VS",
                    "VS",
                    "VS",
                    "VS",
                    "VS",
                    "VS",
                    "VS",
                    "VS",
                    "VS",
                    "VS",
                    "VS",
                    "VS",
                    "VS",
                    "VS",
                    "VS",
                    "VS",
                    "VS",
                    "VS",
                    "VS",
                    "VS",
                    "VS",
                    "VS",
                    "VS",
                    "VS",
                    "VS",
                    "VS",
                    "VS",
                    "VS",
                    "VS",
                    "VS",
                    "VS",
                    "VS",
                    "VS",
                    "VS",
                    "VS",
                    "VS",
                    "VS",
                    "VS",
                    "VS",
                    "VS",
                    "VS",
                    "VS",
                    "VS",
                    "VS",
                    "VS",
                    "VS",
                    "VS",
                    "VS",
                    "VS",
                    "VS",
                    "VS",
                    "VS",
                    "VS",
                    "VS",
                    "VS",
                    "VS",
                    "VS",
                    "VS",
                    "VS",
                    "VS",
                    "VS",
                    "VS",
                    "VS",
                    "VS",
                    "VS",
                    "VS",
                    "VS",
                    "VS",
                    "VS",
                    "VS",
                    "VS",
                    "VS",
                    "VS",
                    "VS",
                    "VS",
                    "VS",
                    "VS",
                    "VS",
                    "VS",
                    "VS",
                    "VS",
                    "VS",
                    "VS",
                    "VS",
                    "VS",
                    "VS",
                    "VS",
                    "VS",
                    "VS",
                    "VS",
                    "VS",
                    "VS",
                    "VS",
                    "VS",
                    "VS",
                    "VS",
                    "VS",
                    "VS",
                    "VS",
                    "VS",
                    "VS",
                    "VS",
                    "VS",
                    "VS",
                    "VS",
                    "VS",
                    "VS",
                    "VS",
                    "VS",
                    "VS",
                    "VS",
                    "VS",
                    "VS",
                    "VS",
                    "VS",
                    "VS",
                    "VS",
                    "VS",
                    "VS",
                    "VS",
                    "VS",
                    "VS",
                    "VS",
                    "VS",
                    "VS",
                    "VS",
                    "VS",
                    "VS",
                    "VS",
                    "VS",
                    "VS",
                    "VS",
                    "VS",
                    "VS",
                    "VS",
                    "VS",
                    "VS",
                    "VS",
                    "VS",
                    "VS",
                    "VS",
                    "VS",
                    "VS",
                    "VS",
                    "VS",
                    "VS",
                    "VS",
                    "VS",
                    "VS",
                    "VS",
                    "VS",
                    "VS",
                    "VS",
                    "VS",
                    "VS",
                    "VS",
                    "VS",
                    "VS",
                    "VS",
                    "VS",
                    "VS",
                    "VS",
                    "VS",
                    "VS",
                    "VS",
                    "VS",
                    "VS",
                    "VS",
                    "VS",
                    "VS",
                    "VS",
                    "VS",
                    "VS",
                    "VS",
                    "VS",
                    "VS",
                    "VS",
                    "VS",
                    "VS",
                    "VS",
                    "VS",
                    "VS",
                    "VS",
                    "VS",
                    "VS",
                    "VS",
                    "VS",
                    "VS",
                    "VS",
                    "VS",
                    "VS",
                    "VS",
                    "VS",
                    "VS",
                    "VS",
                    "VS",
                    "VS",
                    "VS",
                    "VS",
                    "VS",
                    "VS",
                    "VS",
                    "VS",
                    "VS",
                    "VS",
                    "VS",
                    "VS",
                    "VS",
                    "VS",
                    "VS",
                    "VS",
                    "VS",
                    "VS",
                    "VS",
                    "VS",
                    "VS",
                    "VS",
                    "VS",
                    "VS",
                    "VS",
                    "VS",
                    "VS",
                    "VS",
                    "VS",
                    "VS",
                    "VS",
                    "VS",
                    "VS",
                    "VS",
                    "VS",
                    "VS",
                    "VS",
                    "VS",
                    "VS",
                    "VS",
                    "VS",
                    "VS",
                    "VS",
                    "VS",
                    "VS",
                    "VS",
                    "VS",
                    "VS",
                    "VS",
                    "VS",
                    "VS",
                    "VS",
                    "VS",
                    "VS",
                    "VS",
                    "VS",
                    "VS",
                    "VS",
                    "VS",
                    "VS",
                    "VS",
                    "VS",
                    "VS",
                    "VS",
                    "VS",
                    "VS",
                    "VS",
                    "VS",
                    "VS",
                    "VS",
                    "VS",
                    "VS",
                    "VS",
                    "VS",
                    "VS",
                    "VS",
                    "VS",
                    "VS",
                    "VS",
                    "VS",
                    "VS",
                    "VS",
                    "VS",
                    "VS",
                    "VS",
                    "VS",
                    "VS",
                    "VS",
                    "VS",
                    "VS",
                    "VS",
                    "VS",
                    "VS",
                    "VS",
                    "VS",
                    "VS",
                    "VS",
                    "VS",
                    "VS",
                    "VS",
                    "VS",
                    "VS",
                    "VS",
                    "VS",
                    "VS",
                    "VS",
                    "VS",
                    "VS",
                    "VS",
                    "VS",
                    "VS",
                    "VS",
                    "VS",
                    "VS",
                    "VS",
                    "VS",
                    "VS",
                    "VS",
                    "VS",
                    "VS",
                    "VS",
                    "VS",
                    "VS",
                    "VS",
                    "VS",
                    "VS",
                    "VS",
                    "VS",
                    "VS",
                    "VS",
                    "VS",
                    "VS",
                    "VS",
                    "VS",
                    "VS",
                    "VS",
                    "VS",
                    "VS",
                    "VS",
                    "VS",
                    "VS",
                    "VS",
                    "VS",
                    "VS",
                    "VS",
                    "VS",
                    "VS",
                    "VS",
                    "VS",
                    "VS",
                    "VS",
                    "VS",
                    "VS",
                    "VS",
                    "VS",
                    "VS",
                    "VS",
                    "VS",
                    "VS",
                    "VS",
                    "VS",
                    "VS",
                    "VS",
                    "VS",
                    "VS",
                    "VS",
                    "VS",
                    "VS",
                    "VS",
                    "VS",
                    "VS",
                    "VS",
                    "VS",
                    "VS",
                    "VS",
                    "VS",
                    "VS",
                    "VS",
                    "VS",
                    "VS",
                    "VS",
                    "VS",
                    "VS",
                    "VS",
                    "VS",
                    "VS",
                    "VS",
                    "VS",
                    "VS",
                    "VS",
                    "VS",
                    "VS",
                    "VS",
                    "VS",
                    "VS",
                    "VS",
                    "VS",
                    "VS",
                    "VS",
                    "VS",
                    "VS",
                    "VS",
                    "VS",
                    "VS",
                    "VS",
                    "VS",
                    "VS",
                    "VS",
                    "VS",
                    "VS",
                    "VS",
                    "VS",
                    "VS",
                    "VS",
                    "VS",
                    "VS",
                    "VS",
                    "VS",
                    "VS",
                    "VS",
                    "VS",
                    "VS",
                    "VS",
                    "VS",
                    "VS",
                    "VS",
                    "VS",
                    "VS",
                    "VS",
                    "VS",
                    "VS",
                    "VS",
                    "VS",
                    "VS",
                    "VS",
                    "VS",
                    "VS",
                    "VS",
                    "VS",
                    "VS",
                    "VS",
                    "VS",
                    "VS",
                    "VS",
                    "VS",
                    "VS",
                    "VS",
                    "VS",
                    "VS",
                    "VS",
                    "VS",
                    "VS",
                    "VS",
                    "VS",
                    "VS",
                    "VS",
                    "VS",
                    "VS",
                    "VS",
                    "VS",
                    "VS",
                    "VS",
                    "VS",
                    "VS",
                    "VS",
                    "VS",
                    "VS",
                    "VS",
                    "VS",
                    "VS",
                    "VS",
                    "VS",
                    "VS",
                    "VS",
                    "VS",
                    "VS",
                    "VS",
                    "VS",
                    "VS",
                    "VS",
                    "VS",
                    "VS",
                    "VS",
                    "VS",
                    "VS",
                    "VS",
                    "VS",
                    "VS",
                    "VS",
                    "VS",
                    "VS",
                    "VS",
                    "VS",
                    "VS",
                    "VS",
                    "VS",
                    "VS",
                    "VS",
                    "VS",
                    "VS",
                    "VS",
                    "VS",
                    "VS",
                    "VS",
                    "VS",
                    "VS",
                    "VS",
                    "VS",
                    "VS",
                    "VS",
                    "VS",
                    "VS",
                    "VS",
                    "VS",
                    "VS",
                    "VS",
                    "VS",
                    "VS",
                    "VS",
                    "VS",
                    "VS",
                    "VS",
                    "VS",
                    "VS",
                    "VS",
                    "VS",
                    "VS",
                    "VS",
                    "VS",
                    "VS",
                    "VS",
                    "VS",
                    "VS",
                    "VS",
                    "VS",
                    "VS",
                    "VS",
                    "VS",
                    "VS",
                    "VS",
                    "VS",
                    "VS",
                    "VS",
                    "VS",
                    "VS",
                    "VS",
                    "VS",
                    "VS",
                    "VS",
                    "VS",
                    "VS",
                    "VS",
                    "VS",
                    "VS",
                    "VS",
                    "VS",
                    "VS",
                    "VS",
                    "VS",
                    "VS",
                    "VS",
                    "VS",
                    "VS",
                    "VS",
                    "VS",
                    "VS",
                    "VS",
                    "VS",
                    "VS",
                    "VS",
                    "VS",
                    "VS",
                    "VS",
                    "VS",
                    "VS",
                    "VS",
                    "VS",
                    "VS",
                    "VS",
                    "VS",
                    "VS",
                    "VS",
                    "VS",
                    "VS",
                    "VS",
                    "VS",
                    "VS",
                    "VS",
                    "VS",
                    "VS",
                    "VS",
                    "VS",
                    "VS",
                    "VS",
                    "VS",
                    "VS",
                    "VS",
                    "VS",
                    "VS",
                    "VS",
                    "VS",
                    "VS",
                    "VS",
                    "VS",
                    "VS",
                    "VS",
                    "VS",
                    "VS",
                    "VS",
                    "VS",
                    "VS",
                    "VS",
                    "VS",
                    "VS",
                    "VS",
                    "VS",
                    "VS",
                    "VS",
                    "VS",
                    "VS",
                    "VS",
                    "VS",
                    "VS",
                    "VS",
                    "VS",
                    "VS",
                    "VS",
                    "VS",
                    "VS",
                    "VS",
                    "VS",
                    "VS",
                    "VS",
                    "VS",
                    "VS",
                    "VS",
                    "VS",
                    "VS",
                    "VS",
                    "VS",
                    "VS",
                    "VS",
                    "VS",
                    "VS",
                    "VS",
                    "VS",
                    "VS",
                    "VS",
                    "VS",
                    "VS",
                    "VS",
                    "VS",
                    "VS",
                    "VS",
                    "VS",
                    "VS",
                    "VS",
                    "VS",
                    "VS",
                    "VS",
                    "VS",
                    "VS",
                    "VS",
                    "VS",
                    "VS",
                    "VS",
                    "VS",
                    "VS",
                    "VS",
                    "VS",
                    "VS",
                    "VS",
                    "VS",
                    "VS",
                    "VS",
                    "VS",
                    "VS",
                    "VS",
                    "VS",
                    "VS",
                    "VS",
                    "VS",
                    "VS",
                    "VS",
                    "VS",
                    "VS",
                    "VS",
                    "VS",
                    "VS",
                    "VS",
                    "VS",
                    "VS",
                    "VS",
                    "VS",
                    "VS",
                    "VS",
                    "VS",
                    "VS",
                    "VS",
                    "VS",
                    "VS",
                    "VS",
                    "VS",
                    "VS",
                    "VS",
                    "VS",
                    "VS",
                    "VS",
                    "VS",
                    "VS",
                    "VS",
                    "VS",
                    "VS",
                    "VS",
                    "VS",
                    "VS",
                    "VS",
                    "VS",
                    "VS",
                    "VS",
                    "VS",
                    "VS",
                    "VS",
                    "VS",
                    "VS",
                    "VS",
                    "VS",
                    "VS",
                    "VS",
                    "VS",
                    "VS",
                    "VS",
                    "VS",
                    "VS",
                    "VS",
                    "VS",
                    "VS",
                    "VS",
                    "VS",
                    "VS",
                    "VS",
                    "VS",
                    "VS",
                    "VS",
                    "VS",
                    "VS",
                    "VS",
                    "VS",
                    "VS",
                    "VS",
                    "VS",
                    "VS",
                    "VS",
                    "VS",
                    "VS",
                    "VS",
                    "VS",
                    "VS",
                    "VS",
                    "VS",
                    "VS",
                    "VS",
                    "VS",
                    "VS",
                    "VS",
                    "VS",
                    "VS",
                    "VS",
                    "VS",
                    "VS",
                    "VS",
                    "VS",
                    "VS",
                    "VS",
                    "VS",
                    "VS",
                    "VS",
                    "VS",
                    "VS",
                    "VS",
                    "VS",
                    "VS",
                    "VS",
                    "VS",
                    "VS",
                    "VS",
                    "VS",
                    "VS",
                    "VS",
                    "VS",
                    "VS",
                    "VS",
                    "VS",
                    "VS",
                    "VS",
                    "VS",
                    "VS",
                    "VS",
                    "VS",
                    "VS",
                    "VS",
                    "VS",
                    "VS",
                    "VS",
                    "VS",
                    "VS",
                    "VS",
                    "VS",
                    "VS",
                    "VS",
                    "VS",
                    "VS",
                    "VS",
                    "VS",
                    "VS",
                    "VS",
                    "VS",
                    "VS",
                    "VS",
                    "VS",
                    "VS",
                    "VS",
                    "VS",
                    "VS",
                    "VS",
                    "VS",
                    "VS",
                    "VS",
                    "VS",
                    "VS",
                    "VS",
                    "VS",
                    "VS",
                    "VS",
                    "VS",
                    "VS",
                    "VS",
                    "VS",
                    "VS",
                    "VS",
                    "VS",
                    "VS",
                    "VS",
                    "VS",
                    "VS",
                    "VS",
                    "VS",
                    "VS",
                    "VS",
                    "VS",
                    "VS",
                    "VS",
                    "VS",
                    "VS",
                    "VS",
                    "VS",
                    "VS",
                    "VS",
                    "VS",
                    "VS",
                    "VS",
                    "VS",
                    "VS",
                    "VS",
                    "VS",
                    "VS",
                    "VS",
                    "VS",
                    "VS",
                    "VS",
                    "VS",
                    "VS",
                    "VS",
                    "VS",
                    "VS",
                    "VS",
                    "VS",
                    "VS",
                    "VS",
                    "VS",
                    "VS",
                    "VS",
                    "VS",
                    "VS",
                    "VS",
                    "VS",
                    "VS",
                    "VS",
                    "VS",
                    "VS",
                    "VS",
                    "VS",
                    "VS",
                    "VS",
                    "VS",
                    "VS",
                    "VS",
                    "VS",
                    "VS",
                    "VS",
                    "VS",
                    "VS",
                    "VS",
                    "VS",
                    "VS",
                    "VS",
                    "VS",
                    "VS",
                    "VS",
                    "VS",
                    "VS",
                    "VS",
                    "VS",
                    "VS",
                    "VS",
                    "VS",
                    "VS",
                    "VS",
                    "VS",
                    "VS",
                    "VS",
                    "VS",
                    "VS",
                    "VS",
                    "VS",
                    "VS",
                    "VS",
                    "VS",
                    "VS",
                    "VS",
                    "VS",
                    "VS",
                    "VS",
                    "VS",
                    "VS",
                    "VS",
                    "VS",
                    "VS",
                    "VS",
                    "VS",
                    "VS",
                    "VS",
                    "VS",
                    "VS",
                    "VS",
                    "VS",
                    "VS",
                    "VS",
                    "VS",
                    "VS",
                    "VS",
                    "VS",
                    "VS",
                    "VS",
                    "VS",
                    "VS",
                    "VS",
                    "VS",
                    "VS",
                    "VS",
                    "VS",
                    "VS",
                    "VS",
                    "VS",
                    "VS",
                    "VS",
                    "VS",
                    "VS",
                    "VS",
                    "VS",
                    "VS",
                    "VS",
                    "VS",
                    "VS",
                    "VS",
                    "VS",
                    "VS",
                    "VS",
                    "VS",
                    "VS",
                    "VS",
                    "VS",
                    "VS",
                    "VS",
                    "VS",
                    "VS",
                    "VS",
                    "VS",
                    "VS",
                    "VS",
                    "VS",
                    "VS",
                    "VS",
                    "VS",
                    "VS",
                    "VS",
                    "VS",
                    "VS",
                    "VS",
                    "VS",
                    "VS",
                    "VS",
                    "VS",
                    "VS",
                    "VS",
                    "VS",
                    "VS",
                    "VS",
                    "VS",
                    "VS",
                    "VS",
                    "VS",
                    "VS",
                    "VS",
                    "VS",
                    "VS",
                    "VS",
                    "VS",
                    "VS",
                    "VS",
                    "VS",
                    "VS",
                    "VS",
                    "VS",
                    "VS",
                    "VS",
                    "VS",
                    "VS",
                    "VS",
                    "VS",
                    "VS",
                    "VS",
                    "VS",
                    "VS",
                    "VS",
                    "VS",
                    "VS",
                    "VS",
                    "VS",
                    "VS",
                    "VS",
                    "VS",
                    "VS",
                    "VS",
                    "VS",
                    "VS",
                    "VS",
                    "VS",
                    "VS",
                    "VS",
                    "VS",
                    "VS",
                    "VS",
                    "VS",
                    "VS",
                    "VS",
                    "VS",
                    "VS",
                    "VS",
                    "VS",
                    "VS",
                    "VS",
                    "VS",
                    "VS",
                    "VS",
                    "VS",
                    "VS",
                    "VS",
                    "VS",
                    "VS",
                    "VS",
                    "VS",
                    "VS",
                    "VS",
                    "VS",
                    "VS",
                    "VS",
                    "VS",
                    "VS",
                    "VS",
                    "VS",
                    "VS",
                    "VS",
                    "VS",
                    "VS",
                    "VS",
                    "VS",
                    "VS",
                    "VS",
                    "VS",
                    "VS",
                    "VS",
                    "VS",
                    "VS",
                    "VS",
                    "VS",
                    "VS",
                    "VS",
                    "VS",
                    "VS",
                    "VS",
                    "VS",
                    "VS",
                    "VS",
                    "VS",
                    "VS",
                    "VS",
                    "VS",
                    "VS",
                    "VS",
                    "VS",
                    "VS",
                    "VS",
                    "VS",
                    "VS",
                    "VS",
                    "VS",
                    "VS",
                    "VS",
                    "VS",
                    "VS",
                    "VS",
                    "VS",
                    "VS",
                    "VS",
                    "VS",
                    "VS",
                    "VS",
                    "VS",
                    "VS",
                    "VS",
                    "VS",
                    "VS",
                    "VS",
                    "VS",
                    "VS",
                    "VS",
                    "VS",
                    "VS",
                    "VS",
                    "VS",
                    "VS",
                    "VS",
                    "VS",
                    "VS",
                    "VS",
                    "VS",
                    "VS",
                    "VS",
                    "VS",
                    "VS",
                    "VS",
                    "VS",
                    "VS",
                    "VS",
                    "VS",
                    "VS",
                    "VS",
                    "VS",
                    "VS",
                    "VS",
                    "VS",
                    "VS",
                    "VS",
                    "VS",
                    "VS",
                    "VS",
                    "VS",
                    "VS",
                    "VS",
                    "VS",
                    "VS",
                    "VS",
                    "VS",
                    "VS",
                    "VS",
                    "VS",
                    "VS",
                    "VS",
                    "VS",
                    "VS",
                    "VS",
                    "VS",
                    "VS",
                    "VS",
                    "VS",
                    "VS",
                    "VS",
                    "VS",
                    "VS",
                    "VS",
                    "VS",
                    "VS",
                    "VS",
                    "VS",
                    "VS",
                    "VS",
                    "VS",
                    "VS",
                    "VS",
                    "VS",
                    "VS",
                    "VS",
                    "VS",
                    "VS",
                    "VS",
                    "VS",
                    "VS",
                    "VS",
                    "VS",
                    "VS",
                    "VS",
                    "VS",
                    "VS",
                    "VS",
                    "VS",
                    "VS",
                    "VS",
                    "VS",
                    "VS",
                    "VS",
                    "VS",
                    "VS",
                    "VS",
                    "VS",
                    "VS",
                    "VS",
                    "VS",
                    "VS",
                    "VS",
                    "VS",
                    "VS",
                    "VS",
                    "VS",
                    "VS",
                    "VS",
                    "VS",
                    "VS",
                    "VS",
                    "VS",
                    "VS",
                    "VS",
                    "VS",
                    "VS",
                    "VS",
                    "VS",
                    "VS",
                    "VS",
                    "VS",
                    "VS",
                    "VS",
                    "VS",
                    "VS",
                    "VS",
                    "VS",
                    "VS",
                    "VS",
                    "VS",
                    "VS",
                    "VS",
                    "VS",
                    "VS",
                    "VS",
                    "VS",
                    "VS",
                    "VS",
                    "VS",
                    "VS",
                    "VS",
                    "VS",
                    "VS",
                    "VS",
                    "VS",
                    "VS",
                    "VS",
                    "VS",
                    "VS",
                    "VS",
                    "VS",
                    "VS",
                    "VS",
                    "VS",
                    "VS"
                ],
                "USUBJID": [
                    "CDISC001",
                    "CDISC001",
                    "CDISC001",
                    "CDISC001",
                    "CDISC001",
                    "CDISC001",
                    "CDISC001",
                    "CDISC001",
                    "CDISC001",
                    "CDISC001",
                    "CDISC001",
                    "CDISC001",
                    "CDISC001",
                    "CDISC001",
                    "CDISC001",
                    "CDISC001",
                    "CDISC001",
                    "CDISC001",
                    "CDISC001",
                    "CDISC001",
                    "CDISC001",
                    "CDISC001",
                    "CDISC001",
                    "CDISC001",
                    "CDISC001",
                    "CDISC001",
                    "CDISC001",
                    "CDISC001",
                    "CDISC001",
                    "CDISC001",
                    "CDISC001",
                    "CDISC001",
                    "CDISC001",
                    "CDISC001",
                    "CDISC001",
                    "CDISC001",
                    "CDISC001",
                    "CDISC001",
                    "CDISC001",
                    "CDISC001",
                    "CDISC001",
                    "CDISC001",
                    "CDISC001",
                    "CDISC001",
                    "CDISC001",
                    "CDISC001",
                    "CDISC001",
                    "CDISC001",
                    "CDISC001",
                    "CDISC001",
                    "CDISC001",
                    "CDISC001",
                    "CDISC001",
                    "CDISC001",
                    "CDISC001",
                    "CDISC001",
                    "CDISC001",
                    "CDISC002",
                    "CDISC002",
                    "CDISC002",
                    "CDISC002",
                    "CDISC002",
                    "CDISC002",
                    "CDISC002",
                    "CDISC002",
                    "CDISC002",
                    "CDISC002",
                    "CDISC002",
                    "CDISC002",
                    "CDISC002",
                    "CDISC002",
                    "CDISC002",
                    "CDISC002",
                    "CDISC002",
                    "CDISC002",
                    "CDISC002",
                    "CDISC002",
                    "CDISC002",
                    "CDISC002",
                    "CDISC002",
                    "CDISC002",
                    "CDISC002",
                    "CDISC002",
                    "CDISC002",
                    "CDISC002",
                    "CDISC002",
                    "CDISC002",
                    "CDISC002",
                    "CDISC002",
                    "CDISC002",
                    "CDISC002",
                    "CDISC002",
                    "CDISC002",
                    "CDISC002",
                    "CDISC002",
                    "CDISC002",
                    "CDISC002",
                    "CDISC002",
                    "CDISC003",
                    "CDISC003",
                    "CDISC003",
                    "CDISC003",
                    "CDISC003",
                    "CDISC003",
                    "CDISC003",
                    "CDISC003",
                    "CDISC003",
                    "CDISC003",
                    "CDISC003",
                    "CDISC003",
                    "CDISC003",
                    "CDISC003",
                    "CDISC003",
                    "CDISC003",
                    "CDISC003",
                    "CDISC003",
                    "CDISC003",
                    "CDISC003",
                    "CDISC003",
                    "CDISC003",
                    "CDISC003",
                    "CDISC003",
                    "CDISC003",
                    "CDISC003",
                    "CDISC003",
                    "CDISC003",
                    "CDISC003",
                    "CDISC003",
                    "CDISC003",
                    "CDISC003",
                    "CDISC003",
                    "CDISC003",
                    "CDISC003",
                    "CDISC003",
                    "CDISC003",
                    "CDISC003",
                    "CDISC003",
                    "CDISC003",
                    "CDISC003",
                    "CDISC003",
                    "CDISC003",
                    "CDISC003",
                    "CDISC003",
                    "CDISC003",
                    "CDISC003",
                    "CDISC003",
                    "CDISC003",
                    "CDISC003",
                    "CDISC003",
                    "CDISC003",
                    "CDISC003",
                    "CDISC003",
                    "CDISC003",
                    "CDISC003",
                    "CDISC003",
                    "CDISC003",
                    "CDISC003",
                    "CDISC003",
                    "CDISC003",
                    "CDISC003",
                    "CDISC003",
                    "CDISC003",
                    "CDISC003",
                    "CDISC003",
                    "CDISC003",
                    "CDISC003",
                    "CDISC003",
                    "CDISC003",
                    "CDISC003",
                    "CDISC003",
                    "CDISC003",
                    "CDISC003",
                    "CDISC003",
                    "CDISC003",
                    "CDISC003",
                    "CDISC003",
                    "CDISC003",
                    "CDISC003",
                    "CDISC003",
                    "CDISC003",
                    "CDISC003",
                    "CDISC003",
                    "CDISC003",
                    "CDISC003",
                    "CDISC003",
                    "CDISC003",
                    "CDISC003",
                    "CDISC003",
                    "CDISC003",
                    "CDISC003",
                    "CDISC003",
                    "CDISC003",
                    "CDISC003",
                    "CDISC003",
                    "CDISC003",
                    "CDISC003",
                    "CDISC004",
                    "CDISC004",
                    "CDISC004",
                    "CDISC004",
                    "CDISC004",
                    "CDISC004",
                    "CDISC004",
                    "CDISC004",
                    "CDISC004",
                    "CDISC004",
                    "CDISC004",
                    "CDISC004",
                    "CDISC004",
                    "CDISC004",
                    "CDISC004",
                    "CDISC004",
                    "CDISC004",
                    "CDISC004",
                    "CDISC004",
                    "CDISC004",
                    "CDISC004",
                    "CDISC004",
                    "CDISC004",
                    "CDISC004",
                    "CDISC004",
                    "CDISC004",
                    "CDISC004",
                    "CDISC004",
                    "CDISC004",
                    "CDISC004",
                    "CDISC004",
                    "CDISC004",
                    "CDISC004",
                    "CDISC004",
                    "CDISC004",
                    "CDISC004",
                    "CDISC004",
                    "CDISC004",
                    "CDISC004",
                    "CDISC004",
                    "CDISC004",
                    "CDISC004",
                    "CDISC004",
                    "CDISC004",
                    "CDISC004",
                    "CDISC004",
                    "CDISC004",
                    "CDISC004",
                    "CDISC004",
                    "CDISC004",
                    "CDISC004",
                    "CDISC004",
                    "CDISC004",
                    "CDISC004",
                    "CDISC004",
                    "CDISC004",
                    "CDISC004",
                    "CDISC004",
                    "CDISC004",
                    "CDISC004",
                    "CDISC004",
                    "CDISC004",
                    "CDISC004",
                    "CDISC004",
                    "CDISC004",
                    "CDISC004",
                    "CDISC004",
                    "CDISC004",
                    "CDISC004",
                    "CDISC004",
                    "CDISC004",
                    "CDISC004",
                    "CDISC004",
                    "CDISC004",
                    "CDISC004",
                    "CDISC004",
                    "CDISC004",
                    "CDISC004",
                    "CDISC004",
                    "CDISC004",
                    "CDISC004",
                    "CDISC004",
                    "CDISC004",
                    "CDISC004",
                    "CDISC004",
                    "CDISC004",
                    "CDISC004",
                    "CDISC004",
                    "CDISC004",
                    "CDISC004",
                    "CDISC004",
                    "CDISC004",
                    "CDISC004",
                    "CDISC004",
                    "CDISC004",
                    "CDISC004",
                    "CDISC004",
                    "CDISC004",
                    "CDISC004",
                    "CDISC004",
                    "CDISC004",
                    "CDISC004",
                    "CDISC004",
                    "CDISC004",
                    "CDISC004",
                    "CDISC004",
                    "CDISC004",
                    "CDISC004",
                    "CDISC004",
                    "CDISC004",
                    "CDISC004",
                    "CDISC004",
                    "CDISC004",
                    "CDISC004",
                    "CDISC004",
                    "CDISC004",
                    "CDISC004",
                    "CDISC004",
                    "CDISC004",
                    "CDISC004",
                    "CDISC004",
                    "CDISC005",
                    "CDISC005",
                    "CDISC005",
                    "CDISC005",
                    "CDISC005",
                    "CDISC005",
                    "CDISC005",
                    "CDISC005",
                    "CDISC005",
                    "CDISC005",
                    "CDISC005",
                    "CDISC005",
                    "CDISC005",
                    "CDISC005",
                    "CDISC005",
                    "CDISC005",
                    "CDISC005",
                    "CDISC005",
                    "CDISC005",
                    "CDISC005",
                    "CDISC005",
                    "CDISC005",
                    "CDISC005",
                    "CDISC005",
                    "CDISC005",
                    "CDISC005",
                    "CDISC005",
                    "CDISC005",
                    "CDISC005",
                    "CDISC005",
                    "CDISC005",
                    "CDISC005",
                    "CDISC005",
                    "CDISC005",
                    "CDISC005",
                    "CDISC005",
                    "CDISC005",
                    "CDISC005",
                    "CDISC005",
                    "CDISC005",
                    "CDISC005",
                    "CDISC005",
                    "CDISC005",
                    "CDISC005",
                    "CDISC005",
                    "CDISC005",
                    "CDISC005",
                    "CDISC005",
                    "CDISC005",
                    "CDISC005",
                    "CDISC005",
                    "CDISC005",
                    "CDISC005",
                    "CDISC005",
                    "CDISC005",
                    "CDISC005",
                    "CDISC005",
                    "CDISC005",
                    "CDISC005",
                    "CDISC005",
                    "CDISC005",
                    "CDISC005",
                    "CDISC005",
                    "CDISC005",
                    "CDISC005",
                    "CDISC005",
                    "CDISC005",
                    "CDISC005",
                    "CDISC005",
                    "CDISC005",
                    "CDISC005",
                    "CDISC005",
                    "CDISC005",
                    "CDISC005",
                    "CDISC005",
                    "CDISC005",
                    "CDISC005",
                    "CDISC005",
                    "CDISC005",
                    "CDISC005",
                    "CDISC005",
                    "CDISC005",
                    "CDISC005",
                    "CDISC005",
                    "CDISC005",
                    "CDISC005",
                    "CDISC005",
                    "CDISC005",
                    "CDISC005",
                    "CDISC005",
                    "CDISC005",
                    "CDISC005",
                    "CDISC005",
                    "CDISC005",
                    "CDISC005",
                    "CDISC005",
                    "CDISC005",
                    "CDISC005",
                    "CDISC005",
                    "CDISC005",
                    "CDISC005",
                    "CDISC005",
                    "CDISC005",
                    "CDISC005",
                    "CDISC005",
                    "CDISC005",
                    "CDISC005",
                    "CDISC005",
                    "CDISC005",
                    "CDISC005",
                    "CDISC005",
                    "CDISC005",
                    "CDISC005",
                    "CDISC005",
                    "CDISC005",
                    "CDISC005",
                    "CDISC005",
                    "CDISC005",
                    "CDISC005",
                    "CDISC005",
                    "CDISC005",
                    "CDISC005",
                    "CDISC005",
                    "CDISC005",
                    "CDISC005",
                    "CDISC005",
                    "CDISC005",
                    "CDISC005",
                    "CDISC005",
                    "CDISC005",
                    "CDISC005",
                    "CDISC005",
                    "CDISC006",
                    "CDISC006",
                    "CDISC006",
                    "CDISC006",
                    "CDISC006",
                    "CDISC006",
                    "CDISC006",
                    "CDISC006",
                    "CDISC006",
                    "CDISC006",
                    "CDISC006",
                    "CDISC006",
                    "CDISC006",
                    "CDISC006",
                    "CDISC006",
                    "CDISC006",
                    "CDISC006",
                    "CDISC006",
                    "CDISC006",
                    "CDISC006",
                    "CDISC006",
                    "CDISC006",
                    "CDISC006",
                    "CDISC006",
                    "CDISC006",
                    "CDISC006",
                    "CDISC006",
                    "CDISC006",
                    "CDISC006",
                    "CDISC006",
                    "CDISC006",
                    "CDISC006",
                    "CDISC006",
                    "CDISC006",
                    "CDISC006",
                    "CDISC006",
                    "CDISC006",
                    "CDISC006",
                    "CDISC006",
                    "CDISC006",
                    "CDISC006",
                    "CDISC006",
                    "CDISC006",
                    "CDISC006",
                    "CDISC006",
                    "CDISC006",
                    "CDISC006",
                    "CDISC006",
                    "CDISC006",
                    "CDISC006",
                    "CDISC006",
                    "CDISC006",
                    "CDISC006",
                    "CDISC006",
                    "CDISC006",
                    "CDISC006",
                    "CDISC006",
                    "CDISC006",
                    "CDISC006",
                    "CDISC006",
                    "CDISC006",
                    "CDISC006",
                    "CDISC006",
                    "CDISC006",
                    "CDISC006",
                    "CDISC006",
                    "CDISC007",
                    "CDISC007",
                    "CDISC007",
                    "CDISC007",
                    "CDISC007",
                    "CDISC007",
                    "CDISC007",
                    "CDISC007",
                    "CDISC007",
                    "CDISC007",
                    "CDISC007",
                    "CDISC007",
                    "CDISC007",
                    "CDISC007",
                    "CDISC007",
                    "CDISC007",
                    "CDISC007",
                    "CDISC007",
                    "CDISC007",
                    "CDISC007",
                    "CDISC007",
                    "CDISC007",
                    "CDISC007",
                    "CDISC007",
                    "CDISC007",
                    "CDISC007",
                    "CDISC007",
                    "CDISC007",
                    "CDISC007",
                    "CDISC007",
                    "CDISC007",
                    "CDISC007",
                    "CDISC007",
                    "CDISC007",
                    "CDISC007",
                    "CDISC007",
                    "CDISC007",
                    "CDISC007",
                    "CDISC007",
                    "CDISC007",
                    "CDISC007",
                    "CDISC007",
                    "CDISC007",
                    "CDISC007",
                    "CDISC007",
                    "CDISC007",
                    "CDISC007",
                    "CDISC007",
                    "CDISC007",
                    "CDISC007",
                    "CDISC007",
                    "CDISC007",
                    "CDISC007",
                    "CDISC007",
                    "CDISC007",
                    "CDISC007",
                    "CDISC007",
                    "CDISC007",
                    "CDISC007",
                    "CDISC007",
                    "CDISC007",
                    "CDISC007",
                    "CDISC007",
                    "CDISC007",
                    "CDISC007",
                    "CDISC007",
                    "CDISC007",
                    "CDISC007",
                    "CDISC007",
                    "CDISC007",
                    "CDISC008",
                    "CDISC008",
                    "CDISC008",
                    "CDISC008",
                    "CDISC008",
                    "CDISC008",
                    "CDISC008",
                    "CDISC008",
                    "CDISC008",
                    "CDISC008",
                    "CDISC008",
                    "CDISC008",
                    "CDISC008",
                    "CDISC008",
                    "CDISC008",
                    "CDISC008",
                    "CDISC008",
                    "CDISC008",
                    "CDISC008",
                    "CDISC008",
                    "CDISC008",
                    "CDISC008",
                    "CDISC008",
                    "CDISC008",
                    "CDISC008",
                    "CDISC008",
                    "CDISC008",
                    "CDISC008",
                    "CDISC008",
                    "CDISC008",
                    "CDISC008",
                    "CDISC008",
                    "CDISC008",
                    "CDISC008",
                    "CDISC008",
                    "CDISC008",
                    "CDISC008",
                    "CDISC008",
                    "CDISC008",
                    "CDISC008",
                    "CDISC008",
                    "CDISC008",
                    "CDISC008",
                    "CDISC008",
                    "CDISC008",
                    "CDISC008",
                    "CDISC008",
                    "CDISC008",
                    "CDISC008",
                    "CDISC008",
                    "CDISC008",
                    "CDISC008",
                    "CDISC008",
                    "CDISC008",
                    "CDISC008",
                    "CDISC008",
                    "CDISC008",
                    "CDISC008",
                    "CDISC008",
                    "CDISC008",
                    "CDISC008",
                    "CDISC008",
                    "CDISC008",
                    "CDISC008",
                    "CDISC008",
                    "CDISC008",
                    "CDISC008",
                    "CDISC008",
                    "CDISC008",
                    "CDISC008",
                    "CDISC008",
                    "CDISC008",
                    "CDISC008",
                    "CDISC008",
                    "CDISC008",
                    "CDISC008",
                    "CDISC008",
                    "CDISC008",
                    "CDISC008",
                    "CDISC008",
                    "CDISC008",
                    "CDISC008",
                    "CDISC008",
                    "CDISC008",
                    "CDISC008",
                    "CDISC008",
                    "CDISC008",
                    "CDISC008",
                    "CDISC008",
                    "CDISC008",
                    "CDISC008",
                    "CDISC008",
                    "CDISC008",
                    "CDISC008",
                    "CDISC008",
                    "CDISC008",
                    "CDISC008",
                    "CDISC008",
                    "CDISC008",
                    "CDISC008",
                    "CDISC008",
                    "CDISC008",
                    "CDISC008",
                    "CDISC008",
                    "CDISC008",
                    "CDISC008",
                    "CDISC008",
                    "CDISC008",
                    "CDISC008",
                    "CDISC008",
                    "CDISC009",
                    "CDISC009",
                    "CDISC009",
                    "CDISC009",
                    "CDISC009",
                    "CDISC009",
                    "CDISC009",
                    "CDISC009",
                    "CDISC009",
                    "CDISC009",
                    "CDISC009",
                    "CDISC009",
                    "CDISC009",
                    "CDISC009",
                    "CDISC009",
                    "CDISC009",
                    "CDISC009",
                    "CDISC009",
                    "CDISC009",
                    "CDISC009",
                    "CDISC009",
                    "CDISC009",
                    "CDISC009",
                    "CDISC009",
                    "CDISC009",
                    "CDISC009",
                    "CDISC009",
                    "CDISC009",
                    "CDISC009",
                    "CDISC009",
                    "CDISC009",
                    "CDISC009",
                    "CDISC009",
                    "CDISC009",
                    "CDISC009",
                    "CDISC009",
                    "CDISC009",
                    "CDISC009",
                    "CDISC009",
                    "CDISC009",
                    "CDISC009",
                    "CDISC009",
                    "CDISC009",
                    "CDISC009",
                    "CDISC009",
                    "CDISC009",
                    "CDISC009",
                    "CDISC009",
                    "CDISC009",
                    "CDISC009",
                    "CDISC009",
                    "CDISC009",
                    "CDISC009",
                    "CDISC009",
                    "CDISC009",
                    "CDISC009",
                    "CDISC009",
                    "CDISC009",
                    "CDISC009",
                    "CDISC009",
                    "CDISC009",
                    "CDISC009",
                    "CDISC009",
                    "CDISC009",
                    "CDISC009",
                    "CDISC009",
                    "CDISC009",
                    "CDISC009",
                    "CDISC009",
                    "CDISC009",
                    "CDISC009",
                    "CDISC009",
                    "CDISC009",
                    "CDISC009",
                    "CDISC009",
                    "CDISC009",
                    "CDISC009",
                    "CDISC009",
                    "CDISC009",
                    "CDISC009",
                    "CDISC009",
                    "CDISC009",
                    "CDISC009",
                    "CDISC009",
                    "CDISC009",
                    "CDISC009",
                    "CDISC009",
                    "CDISC009",
                    "CDISC009",
                    "CDISC010",
                    "CDISC010",
                    "CDISC010",
                    "CDISC010",
                    "CDISC010",
                    "CDISC010",
                    "CDISC010",
                    "CDISC010",
                    "CDISC010",
                    "CDISC010",
                    "CDISC010",
                    "CDISC010",
                    "CDISC010",
                    "CDISC010",
                    "CDISC010",
                    "CDISC010",
                    "CDISC010",
                    "CDISC010",
                    "CDISC010",
                    "CDISC010",
                    "CDISC010",
                    "CDISC010",
                    "CDISC010",
                    "CDISC010",
                    "CDISC010",
                    "CDISC010",
                    "CDISC010",
                    "CDISC010",
                    "CDISC010",
                    "CDISC010",
                    "CDISC010",
                    "CDISC010",
                    "CDISC010",
                    "CDISC011",
                    "CDISC011",
                    "CDISC011",
                    "CDISC011",
                    "CDISC011",
                    "CDISC011",
                    "CDISC011",
                    "CDISC011",
                    "CDISC011",
                    "CDISC011",
                    "CDISC011",
                    "CDISC011",
                    "CDISC011",
                    "CDISC011",
                    "CDISC011",
                    "CDISC011",
                    "CDISC011",
                    "CDISC011",
                    "CDISC011",
                    "CDISC011",
                    "CDISC011",
                    "CDISC011",
                    "CDISC011",
                    "CDISC011",
                    "CDISC011",
                    "CDISC011",
                    "CDISC011",
                    "CDISC011",
                    "CDISC011",
                    "CDISC011",
                    "CDISC011",
                    "CDISC011",
                    "CDISC011",
                    "CDISC011",
                    "CDISC011",
                    "CDISC011",
                    "CDISC011",
                    "CDISC011",
                    "CDISC011",
                    "CDISC011",
                    "CDISC011",
                    "CDISC011",
                    "CDISC011",
                    "CDISC011",
                    "CDISC011",
                    "CDISC011",
                    "CDISC011",
                    "CDISC011",
                    "CDISC011",
                    "CDISC011",
                    "CDISC011",
                    "CDISC011",
                    "CDISC011",
                    "CDISC011",
                    "CDISC011",
                    "CDISC011",
                    "CDISC011",
                    "CDISC011",
                    "CDISC011",
                    "CDISC011",
                    "CDISC011",
                    "CDISC011",
                    "CDISC011",
                    "CDISC011",
                    "CDISC011",
                    "CDISC011",
                    "CDISC011",
                    "CDISC011",
                    "CDISC011",
                    "CDISC011",
                    "CDISC011",
                    "CDISC011",
                    "CDISC011",
                    "CDISC011",
                    "CDISC011",
                    "CDISC011",
                    "CDISC011",
                    "CDISC011",
                    "CDISC011",
                    "CDISC011",
                    "CDISC011",
                    "CDISC011",
                    "CDISC011",
                    "CDISC011",
                    "CDISC011",
                    "CDISC011",
                    "CDISC011",
                    "CDISC011",
                    "CDISC011",
                    "CDISC011",
                    "CDISC011",
                    "CDISC011",
                    "CDISC011",
                    "CDISC011",
                    "CDISC011",
                    "CDISC011",
                    "CDISC011",
                    "CDISC011",
                    "CDISC011",
                    "CDISC011",
                    "CDISC011",
                    "CDISC011",
                    "CDISC011",
                    "CDISC011",
                    "CDISC011",
                    "CDISC011",
                    "CDISC011",
                    "CDISC011",
                    "CDISC012",
                    "CDISC012",
                    "CDISC012",
                    "CDISC012",
                    "CDISC012",
                    "CDISC012",
                    "CDISC012",
                    "CDISC012",
                    "CDISC012",
                    "CDISC012",
                    "CDISC012",
                    "CDISC012",
                    "CDISC012",
                    "CDISC012",
                    "CDISC012",
                    "CDISC012",
                    "CDISC012",
                    "CDISC012",
                    "CDISC012",
                    "CDISC012",
                    "CDISC012",
                    "CDISC012",
                    "CDISC012",
                    "CDISC012",
                    "CDISC012",
                    "CDISC012",
                    "CDISC012",
                    "CDISC012",
                    "CDISC012",
                    "CDISC012",
                    "CDISC012",
                    "CDISC012",
                    "CDISC012",
                    "CDISC012",
                    "CDISC012",
                    "CDISC012",
                    "CDISC012",
                    "CDISC012",
                    "CDISC012",
                    "CDISC012",
                    "CDISC012",
                    "CDISC012",
                    "CDISC012",
                    "CDISC012",
                    "CDISC012",
                    "CDISC012",
                    "CDISC012",
                    "CDISC012",
                    "CDISC012",
                    "CDISC012",
                    "CDISC012",
                    "CDISC012",
                    "CDISC012",
                    "CDISC012",
                    "CDISC012",
                    "CDISC012",
                    "CDISC012",
                    "CDISC012",
                    "CDISC012",
                    "CDISC012",
                    "CDISC012",
                    "CDISC012",
                    "CDISC012",
                    "CDISC012",
                    "CDISC012",
                    "CDISC012",
                    "CDISC012",
                    "CDISC012",
                    "CDISC012",
                    "CDISC012",
                    "CDISC012",
                    "CDISC012",
                    "CDISC012",
                    "CDISC012",
                    "CDISC012",
                    "CDISC012",
                    "CDISC012",
                    "CDISC012",
                    "CDISC012",
                    "CDISC012",
                    "CDISC012",
                    "CDISC012",
                    "CDISC012",
                    "CDISC012",
                    "CDISC012",
                    "CDISC012",
                    "CDISC012",
                    "CDISC012",
                    "CDISC012",
                    "CDISC012",
                    "CDISC012",
                    "CDISC012",
                    "CDISC012",
                    "CDISC012",
                    "CDISC012",
                    "CDISC012",
                    "CDISC012",
                    "CDISC012",
                    "CDISC012",
                    "CDISC012",
                    "CDISC012",
                    "CDISC012",
                    "CDISC012",
                    "CDISC012",
                    "CDISC012",
                    "CDISC012",
                    "CDISC012",
                    "CDISC012",
                    "CDISC012",
                    "CDISC012",
                    "CDISC013",
                    "CDISC013",
                    "CDISC013",
                    "CDISC013",
                    "CDISC013",
                    "CDISC013",
                    "CDISC013",
                    "CDISC013",
                    "CDISC013",
                    "CDISC013",
                    "CDISC013",
                    "CDISC013",
                    "CDISC013",
                    "CDISC013",
                    "CDISC013",
                    "CDISC013",
                    "CDISC013",
                    "CDISC013",
                    "CDISC013",
                    "CDISC013",
                    "CDISC013",
                    "CDISC013",
                    "CDISC013",
                    "CDISC013",
                    "CDISC013",
                    "CDISC013",
                    "CDISC013",
                    "CDISC013",
                    "CDISC013",
                    "CDISC013",
                    "CDISC013",
                    "CDISC013",
                    "CDISC013",
                    "CDISC014",
                    "CDISC014",
                    "CDISC014",
                    "CDISC014",
                    "CDISC014",
                    "CDISC014",
                    "CDISC014",
                    "CDISC014",
                    "CDISC014",
                    "CDISC014",
                    "CDISC014",
                    "CDISC014",
                    "CDISC014",
                    "CDISC014",
                    "CDISC014",
                    "CDISC014",
                    "CDISC014",
                    "CDISC014",
                    "CDISC014",
                    "CDISC014",
                    "CDISC014",
                    "CDISC014",
                    "CDISC014",
                    "CDISC014",
                    "CDISC014",
                    "CDISC014",
                    "CDISC014",
                    "CDISC014",
                    "CDISC014",
                    "CDISC014",
                    "CDISC014",
                    "CDISC014",
                    "CDISC014",
                    "CDISC014",
                    "CDISC014",
                    "CDISC014",
                    "CDISC014",
                    "CDISC014",
                    "CDISC014",
                    "CDISC014",
                    "CDISC014",
                    "CDISC014",
                    "CDISC014",
                    "CDISC014",
                    "CDISC014",
                    "CDISC014",
                    "CDISC014",
                    "CDISC014",
                    "CDISC014",
                    "CDISC014",
                    "CDISC014",
                    "CDISC014",
                    "CDISC014",
                    "CDISC014",
                    "CDISC014",
                    "CDISC014",
                    "CDISC014",
                    "CDISC014",
                    "CDISC014",
                    "CDISC014",
                    "CDISC014",
                    "CDISC014",
                    "CDISC014",
                    "CDISC014",
                    "CDISC014",
                    "CDISC016",
                    "CDISC016",
                    "CDISC016",
                    "CDISC016",
                    "CDISC016",
                    "CDISC016",
                    "CDISC016",
                    "CDISC016",
                    "CDISC016",
                    "CDISC016",
                    "CDISC016",
                    "CDISC016",
                    "CDISC016",
                    "CDISC016",
                    "CDISC016",
                    "CDISC016",
                    "CDISC016",
                    "CDISC016",
                    "CDISC016",
                    "CDISC016",
                    "CDISC016",
                    "CDISC016",
                    "CDISC016",
                    "CDISC016",
                    "CDISC016",
                    "CDISC016",
                    "CDISC016",
                    "CDISC016",
                    "CDISC016",
                    "CDISC016",
                    "CDISC016",
                    "CDISC016",
                    "CDISC016",
                    "CDISC016",
                    "CDISC016",
                    "CDISC016",
                    "CDISC016",
                    "CDISC016",
                    "CDISC016",
                    "CDISC016",
                    "CDISC016",
                    "CDISC016",
                    "CDISC016",
                    "CDISC016",
                    "CDISC016",
                    "CDISC016",
                    "CDISC016",
                    "CDISC016",
                    "CDISC016",
                    "CDISC016",
                    "CDISC016",
                    "CDISC016",
                    "CDISC016",
                    "CDISC016",
                    "CDISC016",
                    "CDISC016",
                    "CDISC016",
                    "CDISC016",
                    "CDISC016",
                    "CDISC016",
                    "CDISC016",
                    "CDISC016",
                    "CDISC016",
                    "CDISC016",
                    "CDISC016",
                    "CDISC016",
                    "CDISC016",
                    "CDISC016",
                    "CDISC016",
                    "CDISC016",
                    "CDISC016",
                    "CDISC016",
                    "CDISC016",
                    "CDISC016",
                    "CDISC016",
                    "CDISC016",
                    "CDISC016",
                    "CDISC016",
                    "CDISC016",
                    "CDISC016",
                    "CDISC016",
                    "CDISC016",
                    "CDISC016",
                    "CDISC016",
                    "CDISC016",
                    "CDISC016",
                    "CDISC016",
                    "CDISC016",
                    "CDISC016",
                    "CDISC016",
                    "CDISC016",
                    "CDISC016",
                    "CDISC016",
                    "CDISC016",
                    "CDISC016",
                    "CDISC016",
                    "CDISC016",
                    "CDISC016",
                    "CDISC017",
                    "CDISC017",
                    "CDISC017",
                    "CDISC017",
                    "CDISC017",
                    "CDISC017",
                    "CDISC017",
                    "CDISC017",
                    "CDISC017",
                    "CDISC017",
                    "CDISC017",
                    "CDISC017",
                    "CDISC017",
                    "CDISC017",
                    "CDISC017",
                    "CDISC017",
                    "CDISC017",
                    "CDISC017",
                    "CDISC017",
                    "CDISC017",
                    "CDISC017",
                    "CDISC017",
                    "CDISC017",
                    "CDISC017",
                    "CDISC017",
                    "CDISC017",
                    "CDISC017",
                    "CDISC017",
                    "CDISC017",
                    "CDISC017",
                    "CDISC017",
                    "CDISC017",
                    "CDISC017",
                    "CDISC017",
                    "CDISC017",
                    "CDISC017",
                    "CDISC017",
                    "CDISC017",
                    "CDISC017",
                    "CDISC017",
                    "CDISC017",
                    "CDISC017",
                    "CDISC017",
                    "CDISC017",
                    "CDISC017",
                    "CDISC017",
                    "CDISC017",
                    "CDISC017",
                    "CDISC017",
                    "CDISC017",
                    "CDISC017",
                    "CDISC017",
                    "CDISC017",
                    "CDISC017",
                    "CDISC017",
                    "CDISC017",
                    "CDISC017",
                    "CDISC017",
                    "CDISC017",
                    "CDISC017",
                    "CDISC017",
                    "CDISC017",
                    "CDISC017",
                    "CDISC017",
                    "CDISC017",
                    "CDISC017",
                    "CDISC017",
                    "CDISC017",
                    "CDISC017",
                    "CDISC017",
                    "CDISC017",
                    "CDISC017",
                    "CDISC017",
                    "CDISC017",
                    "CDISC017",
                    "CDISC017",
                    "CDISC017",
                    "CDISC017",
                    "CDISC017",
                    "CDISC017",
                    "CDISC017",
                    "CDISC017",
                    "CDISC017",
                    "CDISC017",
                    "CDISC017",
                    "CDISC017",
                    "CDISC017",
                    "CDISC017",
                    "CDISC017",
                    "CDISC017",
                    "CDISC017",
                    "CDISC017",
                    "CDISC017",
                    "CDISC017",
                    "CDISC017",
                    "CDISC017",
                    "CDISC017",
                    "CDISC017",
                    "CDISC017",
                    "CDISC017",
                    "CDISC017",
                    "CDISC017",
                    "CDISC017",
                    "CDISC017",
                    "CDISC017",
                    "CDISC017",
                    "CDISC017",
                    "CDISC017",
                    "CDISC017",
                    "CDISC017",
                    "CDISC017",
                    "CDISC017",
                    "CDISC017",
                    "CDISC017",
                    "CDISC017",
                    "CDISC017",
                    "CDISC017",
                    "CDISC017",
                    "CDISC017",
                    "CDISC017",
                    "CDISC018",
                    "CDISC018",
                    "CDISC018",
                    "CDISC018",
                    "CDISC018",
                    "CDISC018",
                    "CDISC018",
                    "CDISC018",
                    "CDISC018",
                    "CDISC018",
                    "CDISC018",
                    "CDISC018",
                    "CDISC018",
                    "CDISC018",
                    "CDISC018",
                    "CDISC018",
                    "CDISC018",
                    "CDISC018",
                    "CDISC018",
                    "CDISC018",
                    "CDISC018",
                    "CDISC018",
                    "CDISC018",
                    "CDISC018",
                    "CDISC018",
                    "CDISC018",
                    "CDISC018",
                    "CDISC018",
                    "CDISC018",
                    "CDISC018",
                    "CDISC018",
                    "CDISC018",
                    "CDISC018",
                    "CDISC018",
                    "CDISC018",
                    "CDISC018",
                    "CDISC018",
                    "CDISC018",
                    "CDISC018",
                    "CDISC018",
                    "CDISC018",
                    "CDISC018",
                    "CDISC018",
                    "CDISC018",
                    "CDISC018",
                    "CDISC018",
                    "CDISC018",
                    "CDISC018",
                    "CDISC018",
                    "CDISC018",
                    "CDISC018",
                    "CDISC018",
                    "CDISC018",
                    "CDISC018",
                    "CDISC018",
                    "CDISC018",
                    "CDISC018",
                    "CDISC018",
                    "CDISC018",
                    "CDISC018",
                    "CDISC018",
                    "CDISC018",
                    "CDISC018",
                    "CDISC018",
                    "CDISC018",
                    "CDISC018"
                ],
                "VSSEQ": [
                    1,
                    2,
                    3,
                    4,
                    5,
                    6,
                    7,
                    8,
                    9,
                    10,
                    11,
                    12,
                    13,
                    14,
                    15,
                    16,
                    17,
                    18,
                    19,
                    20,
                    21,
                    22,
                    23,
                    24,
                    25,
                    26,
                    27,
                    28,
                    29,
                    30,
                    31,
                    32,
                    33,
                    34,
                    35,
                    36,
                    37,
                    38,
                    39,
                    40,
                    41,
                    42,
                    43,
                    44,
                    45,
                    46,
                    47,
                    48,
                    49,
                    50,
                    51,
                    52,
                    53,
                    54,
                    55,
                    56,
                    57,
                    1,
                    2,
                    3,
                    4,
                    5,
                    6,
                    7,
                    8,
                    9,
                    10,
                    11,
                    12,
                    13,
                    14,
                    15,
                    16,
                    17,
                    18,
                    19,
                    20,
                    21,
                    22,
                    23,
                    24,
                    25,
                    26,
                    27,
                    28,
                    29,
                    30,
                    31,
                    32,
                    33,
                    34,
                    35,
                    36,
                    37,
                    38,
                    39,
                    40,
                    41,
                    1,
                    2,
                    3,
                    4,
                    5,
                    6,
                    7,
                    8,
                    9,
                    10,
                    11,
                    12,
                    13,
                    14,
                    15,
                    16,
                    17,
                    18,
                    19,
                    20,
                    21,
                    22,
                    23,
                    24,
                    25,
                    26,
                    27,
                    28,
                    29,
                    30,
                    31,
                    32,
                    33,
                    34,
                    35,
                    36,
                    37,
                    38,
                    39,
                    40,
                    41,
                    42,
                    43,
                    44,
                    45,
                    46,
                    47,
                    48,
                    49,
                    50,
                    51,
                    52,
                    53,
                    54,
                    55,
                    56,
                    57,
                    58,
                    59,
                    60,
                    61,
                    62,
                    63,
                    64,
                    65,
                    66,
                    67,
                    68,
                    69,
                    70,
                    71,
                    72,
                    73,
                    74,
                    75,
                    76,
                    77,
                    78,
                    79,
                    80,
                    81,
                    82,
                    83,
                    84,
                    85,
                    86,
                    87,
                    88,
                    89,
                    90,
                    91,
                    92,
                    93,
                    94,
                    95,
                    96,
                    97,
                    98,
                    1,
                    2,
                    3,
                    4,
                    5,
                    6,
                    7,
                    8,
                    9,
                    10,
                    11,
                    12,
                    13,
                    14,
                    15,
                    16,
                    17,
                    18,
                    19,
                    20,
                    21,
                    22,
                    23,
                    24,
                    25,
                    26,
                    27,
                    28,
                    29,
                    30,
                    31,
                    32,
                    33,
                    34,
                    35,
                    36,
                    37,
                    38,
                    39,
                    40,
                    41,
                    42,
                    43,
                    44,
                    45,
                    46,
                    47,
                    48,
                    49,
                    50,
                    51,
                    52,
                    53,
                    54,
                    55,
                    56,
                    57,
                    58,
                    59,
                    60,
                    61,
                    62,
                    63,
                    64,
                    65,
                    66,
                    67,
                    68,
                    69,
                    70,
                    71,
                    72,
                    73,
                    74,
                    75,
                    76,
                    77,
                    78,
                    79,
                    80,
                    81,
                    82,
                    83,
                    84,
                    85,
                    86,
                    87,
                    88,
                    89,
                    90,
                    91,
                    92,
                    93,
                    94,
                    95,
                    96,
                    97,
                    98,
                    99,
                    100,
                    101,
                    102,
                    103,
                    104,
                    105,
                    106,
                    107,
                    108,
                    109,
                    110,
                    111,
                    112,
                    113,
                    114,
                    115,
                    116,
                    117,
                    118,
                    119,
                    120,
                    121,
                    1,
                    2,
                    3,
                    4,
                    5,
                    6,
                    7,
                    8,
                    9,
                    10,
                    11,
                    12,
                    13,
                    14,
                    15,
                    16,
                    17,
                    18,
                    19,
                    20,
                    21,
                    22,
                    23,
                    24,
                    25,
                    26,
                    27,
                    28,
                    29,
                    30,
                    31,
                    32,
                    33,
                    34,
                    35,
                    36,
                    37,
                    38,
                    39,
                    40,
                    41,
                    42,
                    43,
                    44,
                    45,
                    46,
                    47,
                    48,
                    49,
                    50,
                    51,
                    52,
                    53,
                    54,
                    55,
                    56,
                    57,
                    58,
                    59,
                    60,
                    61,
                    62,
                    63,
                    64,
                    65,
                    66,
                    67,
                    68,
                    69,
                    70,
                    71,
                    72,
                    73,
                    74,
                    75,
                    76,
                    77,
                    78,
                    79,
                    80,
                    81,
                    82,
                    83,
                    84,
                    85,
                    86,
                    87,
                    88,
                    89,
                    90,
                    91,
                    92,
                    93,
                    94,
                    95,
                    96,
                    97,
                    98,
                    99,
                    100,
                    101,
                    102,
                    103,
                    104,
                    105,
                    106,
                    107,
                    108,
                    109,
                    110,
                    111,
                    112,
                    113,
                    114,
                    115,
                    116,
                    117,
                    118,
                    119,
                    120,
                    121,
                    122,
                    123,
                    124,
                    125,
                    126,
                    127,
                    128,
                    129,
                    130,
                    131,
                    132,
                    1,
                    2,
                    3,
                    4,
                    5,
                    6,
                    7,
                    8,
                    9,
                    10,
                    11,
                    12,
                    13,
                    14,
                    15,
                    16,
                    17,
                    18,
                    19,
                    20,
                    21,
                    22,
                    23,
                    24,
                    25,
                    26,
                    27,
                    28,
                    29,
                    30,
                    31,
                    32,
                    33,
                    34,
                    35,
                    36,
                    37,
                    38,
                    39,
                    40,
                    41,
                    42,
                    43,
                    44,
                    45,
                    46,
                    47,
                    48,
                    49,
                    50,
                    51,
                    52,
                    53,
                    54,
                    55,
                    56,
                    57,
                    58,
                    59,
                    60,
                    61,
                    62,
                    63,
                    64,
                    65,
                    66,
                    1,
                    2,
                    3,
                    4,
                    5,
                    6,
                    7,
                    8,
                    9,
                    10,
                    11,
                    12,
                    13,
                    14,
                    15,
                    16,
                    17,
                    18,
                    19,
                    20,
                    21,
                    22,
                    23,
                    24,
                    25,
                    26,
                    27,
                    28,
                    29,
                    30,
                    31,
                    32,
                    33,
                    34,
                    35,
                    36,
                    37,
                    38,
                    39,
                    40,
                    41,
                    42,
                    43,
                    44,
                    45,
                    46,
                    47,
                    48,
                    49,
                    50,
                    51,
                    52,
                    53,
                    54,
                    55,
                    56,
                    57,
                    58,
                    59,
                    60,
                    61,
                    62,
                    63,
                    64,
                    65,
                    66,
                    67,
                    68,
                    69,
                    70,
                    1,
                    2,
                    3,
                    4,
                    5,
                    6,
                    7,
                    8,
                    9,
                    10,
                    11,
                    12,
                    13,
                    14,
                    15,
                    16,
                    17,
                    18,
                    19,
                    20,
                    21,
                    22,
                    23,
                    24,
                    25,
                    26,
                    27,
                    28,
                    29,
                    30,
                    31,
                    32,
                    33,
                    34,
                    35,
                    36,
                    37,
                    38,
                    39,
                    40,
                    41,
                    42,
                    43,
                    44,
                    45,
                    46,
                    47,
                    48,
                    49,
                    50,
                    51,
                    52,
                    53,
                    54,
                    55,
                    56,
                    57,
                    58,
                    59,
                    60,
                    61,
                    62,
                    63,
                    64,
                    65,
                    66,
                    67,
                    68,
                    69,
                    70,
                    71,
                    72,
                    73,
                    74,
                    75,
                    76,
                    77,
                    78,
                    79,
                    80,
                    81,
                    82,
                    83,
                    84,
                    85,
                    86,
                    87,
                    88,
                    89,
                    90,
                    91,
                    92,
                    93,
                    94,
                    95,
                    96,
                    97,
                    98,
                    99,
                    100,
                    101,
                    102,
                    103,
                    104,
                    105,
                    106,
                    107,
                    108,
                    109,
                    110,
                    1,
                    2,
                    3,
                    4,
                    5,
                    6,
                    7,
                    8,
                    9,
                    10,
                    11,
                    12,
                    13,
                    14,
                    15,
                    16,
                    17,
                    18,
                    19,
                    20,
                    21,
                    22,
                    23,
                    24,
                    25,
                    26,
                    27,
                    28,
                    29,
                    30,
                    31,
                    32,
                    33,
                    34,
                    35,
                    36,
                    37,
                    38,
                    39,
                    40,
                    41,
                    42,
                    43,
                    44,
                    45,
                    46,
                    47,
                    48,
                    49,
                    50,
                    51,
                    52,
                    53,
                    54,
                    55,
                    56,
                    57,
                    58,
                    59,
                    60,
                    61,
                    62,
                    63,
                    64,
                    65,
                    66,
                    67,
                    68,
                    69,
                    70,
                    71,
                    72,
                    73,
                    74,
                    75,
                    76,
                    77,
                    78,
                    79,
                    80,
                    81,
                    82,
                    83,
                    84,
                    85,
                    86,
                    87,
                    88,
                    89,
                    1,
                    2,
                    3,
                    4,
                    5,
                    6,
                    7,
                    8,
                    9,
                    10,
                    11,
                    12,
                    13,
                    14,
                    15,
                    16,
                    17,
                    18,
                    19,
                    20,
                    21,
                    22,
                    23,
                    24,
                    25,
                    26,
                    27,
                    28,
                    29,
                    30,
                    31,
                    32,
                    33,
                    1,
                    2,
                    3,
                    4,
                    5,
                    6,
                    7,
                    8,
                    9,
                    10,
                    11,
                    12,
                    13,
                    14,
                    15,
                    16,
                    17,
                    18,
                    19,
                    20,
                    21,
                    22,
                    23,
                    24,
                    25,
                    26,
                    27,
                    28,
                    29,
                    30,
                    31,
                    32,
                    33,
                    34,
                    35,
                    36,
                    37,
                    38,
                    39,
                    40,
                    41,
                    42,
                    43,
                    44,
                    45,
                    46,
                    47,
                    48,
                    49,
                    50,
                    51,
                    52,
                    53,
                    54,
                    55,
                    56,
                    57,
                    58,
                    59,
                    60,
                    61,
                    62,
                    63,
                    64,
                    65,
                    66,
                    67,
                    68,
                    69,
                    70,
                    71,
                    72,
                    73,
                    74,
                    75,
                    76,
                    77,
                    78,
                    79,
                    80,
                    81,
                    82,
                    83,
                    84,
                    85,
                    86,
                    87,
                    88,
                    89,
                    90,
                    91,
                    92,
                    93,
                    94,
                    95,
                    96,
                    97,
                    98,
                    99,
                    100,
                    101,
                    102,
                    103,
                    104,
                    105,
                    106,
                    107,
                    108,
                    1,
                    2,
                    3,
                    4,
                    5,
                    6,
                    7,
                    8,
                    9,
                    10,
                    11,
                    12,
                    13,
                    14,
                    15,
                    16,
                    17,
                    18,
                    19,
                    20,
                    21,
                    22,
                    23,
                    24,
                    25,
                    26,
                    27,
                    28,
                    29,
                    30,
                    31,
                    32,
                    33,
                    34,
                    35,
                    36,
                    37,
                    38,
                    39,
                    40,
                    41,
                    42,
                    43,
                    44,
                    45,
                    46,
                    47,
                    48,
                    49,
                    50,
                    51,
                    52,
                    53,
                    54,
                    55,
                    56,
                    57,
                    58,
                    59,
                    60,
                    61,
                    62,
                    63,
                    64,
                    65,
                    66,
                    67,
                    68,
                    69,
                    70,
                    71,
                    72,
                    73,
                    74,
                    75,
                    76,
                    77,
                    78,
                    79,
                    80,
                    81,
                    82,
                    83,
                    84,
                    85,
                    86,
                    87,
                    88,
                    89,
                    90,
                    91,
                    92,
                    93,
                    94,
                    95,
                    96,
                    97,
                    98,
                    99,
                    100,
                    101,
                    102,
                    103,
                    104,
                    105,
                    106,
                    107,
                    108,
                    109,
                    110,
                    1,
                    2,
                    3,
                    4,
                    5,
                    6,
                    7,
                    8,
                    9,
                    10,
                    11,
                    12,
                    13,
                    14,
                    15,
                    16,
                    17,
                    18,
                    19,
                    20,
                    21,
                    22,
                    23,
                    24,
                    25,
                    26,
                    27,
                    28,
                    29,
                    30,
                    31,
                    32,
                    33,
                    1,
                    2,
                    3,
                    4,
                    5,
                    6,
                    7,
                    8,
                    9,
                    10,
                    11,
                    12,
                    13,
                    14,
                    15,
                    16,
                    17,
                    18,
                    19,
                    20,
                    21,
                    22,
                    23,
                    24,
                    25,
                    26,
                    27,
                    28,
                    29,
                    30,
                    31,
                    32,
                    33,
                    34,
                    35,
                    36,
                    37,
                    38,
                    39,
                    40,
                    41,
                    42,
                    43,
                    44,
                    45,
                    46,
                    47,
                    48,
                    49,
                    50,
                    51,
                    52,
                    53,
                    54,
                    55,
                    56,
                    57,
                    58,
                    59,
                    60,
                    61,
                    62,
                    63,
                    64,
                    65,
                    1,
                    2,
                    3,
                    4,
                    5,
                    6,
                    7,
                    8,
                    9,
                    10,
                    11,
                    12,
                    13,
                    14,
                    15,
                    16,
                    17,
                    18,
                    19,
                    20,
                    21,
                    22,
                    23,
                    24,
                    25,
                    26,
                    27,
                    28,
                    29,
                    30,
                    31,
                    32,
                    33,
                    34,
                    35,
                    36,
                    37,
                    38,
                    39,
                    40,
                    41,
                    42,
                    43,
                    44,
                    45,
                    46,
                    47,
                    48,
                    49,
                    50,
                    51,
                    52,
                    53,
                    54,
                    55,
                    56,
                    57,
                    58,
                    59,
                    60,
                    61,
                    62,
                    63,
                    64,
                    65,
                    66,
                    67,
                    68,
                    69,
                    70,
                    71,
                    72,
                    73,
                    74,
                    75,
                    76,
                    77,
                    78,
                    79,
                    80,
                    81,
                    82,
                    83,
                    84,
                    85,
                    86,
                    87,
                    88,
                    89,
                    90,
                    91,
                    92,
                    93,
                    94,
                    95,
                    96,
                    97,
                    98,
                    1,
                    2,
                    3,
                    4,
                    5,
                    6,
                    7,
                    8,
                    9,
                    10,
                    11,
                    12,
                    13,
                    14,
                    15,
                    16,
                    17,
                    18,
                    19,
                    20,
                    21,
                    22,
                    23,
                    24,
                    25,
                    26,
                    27,
                    28,
                    29,
                    30,
                    31,
                    32,
                    33,
                    34,
                    35,
                    36,
                    37,
                    38,
                    39,
                    40,
                    41,
                    42,
                    43,
                    44,
                    45,
                    46,
                    47,
                    48,
                    49,
                    50,
                    51,
                    52,
                    53,
                    54,
                    55,
                    56,
                    57,
                    58,
                    59,
                    60,
                    61,
                    62,
                    63,
                    64,
                    65,
                    66,
                    67,
                    68,
                    69,
                    70,
                    71,
                    72,
                    73,
                    74,
                    75,
                    76,
                    77,
                    78,
                    79,
                    80,
                    81,
                    82,
                    83,
                    84,
                    85,
                    86,
                    87,
                    88,
                    89,
                    90,
                    91,
                    92,
                    93,
                    94,
                    95,
                    96,
                    97,
                    98,
                    99,
                    100,
                    101,
                    102,
                    103,
                    104,
                    105,
                    106,
                    107,
                    108,
                    109,
                    110,
                    111,
                    112,
                    113,
                    114,
                    115,
                    116,
                    117,
                    118,
                    119,
                    120,
                    1,
                    2,
                    3,
                    4,
                    5,
                    6,
                    7,
                    8,
                    9,
                    10,
                    11,
                    12,
                    13,
                    14,
                    15,
                    16,
                    17,
                    18,
                    19,
                    20,
                    21,
                    22,
                    23,
                    24,
                    25,
                    26,
                    27,
                    28,
                    29,
                    30,
                    31,
                    32,
                    33,
                    34,
                    35,
                    36,
                    37,
                    38,
                    39,
                    40,
                    41,
                    42,
                    43,
                    44,
                    45,
                    46,
                    47,
                    48,
                    49,
                    50,
                    51,
                    52,
                    53,
                    54,
                    55,
                    56,
                    57,
                    58,
                    59,
                    60,
                    61,
                    62,
                    63,
                    64,
                    65,
                    66
                ],
                "VSTESTCD": [
                    "DIABPwww",
                    "DIABP",
                    "DIABP",
                    "DIABP",
                    "DIABP",
                    "DIABP",
                    "DIABP",
                    "DIABP",
                    "DIABP",
                    "DIABP",
                    "DIABP",
                    "DIABP",
                    "DIABP",
                    "DIABP",
                    "HEIGHT",
                    "PULSE",
                    "PULSE",
                    "PULSE",
                    "PULSE",
                    "PULSE",
                    "PULSE",
                    "PULSE",
                    "PULSE",
                    "PULSE",
                    "PULSE",
                    "PULSE",
                    "PULSE",
                    "PULSE",
                    "PULSE",
                    "SYSBP",
                    "SYSBP",
                    "SYSBP",
                    "SYSBP",
                    "SYSBP",
                    "SYSBP",
                    "SYSBP",
                    "SYSBP",
                    "SYSBP",
                    "SYSBP",
                    "SYSBP",
                    "SYSBP",
                    "SYSBP",
                    "SYSBP",
                    "TEMP",
                    "TEMP",
                    "TEMP",
                    "TEMP",
                    "TEMP",
                    "TEMP",
                    "TEMP",
                    "TEMP",
                    "WEIGHT",
                    "WEIGHT",
                    "WEIGHT",
                    "WEIGHT",
                    "WEIGHT",
                    "WEIGHT",
                    "DIABP",
                    "DIABP",
                    "DIABP",
                    "DIABP",
                    "DIABP",
                    "DIABP",
                    "DIABP",
                    "DIABP",
                    "DIABP",
                    "HEIGHT",
                    "PULSE",
                    "PULSE",
                    "PULSE",
                    "PULSE",
                    "PULSE",
                    "PULSE",
                    "PULSE",
                    "PULSE",
                    "PULSE",
                    "SYSBP",
                    "SYSBP",
                    "SYSBP",
                    "SYSBP",
                    "SYSBP",
                    "SYSBP",
                    "SYSBP",
                    "SYSBP",
                    "SYSBP",
                    "TEMP",
                    "TEMP",
                    "TEMP",
                    "TEMP",
                    "TEMP",
                    "TEMP",
                    "TEMP",
                    "WEIGHT",
                    "WEIGHT",
                    "WEIGHT",
                    "WEIGHT",
                    "WEIGHT",
                    "WEIGHT",
                    "DIABP",
                    "DIABP",
                    "DIABP",
                    "DIABP",
                    "DIABP",
                    "DIABP",
                    "DIABP",
                    "DIABP",
                    "DIABP",
                    "DIABP",
                    "DIABP",
                    "DIABP",
                    "DIABP",
                    "DIABP",
                    "DIABP",
                    "DIABP",
                    "DIABP",
                    "DIABP",
                    "DIABP",
                    "DIABP",
                    "DIABP",
                    "DIABP",
                    "DIABP",
                    "DIABP",
                    "DIABP",
                    "DIABP",
                    "DIABP",
                    "HEIGHT",
                    "PULSE",
                    "PULSE",
                    "PULSE",
                    "PULSE",
                    "PULSE",
                    "PULSE",
                    "PULSE",
                    "PULSE",
                    "PULSE",
                    "PULSE",
                    "PULSE",
                    "PULSE",
                    "PULSE",
                    "PULSE",
                    "PULSE",
                    "PULSE",
                    "PULSE",
                    "PULSE",
                    "PULSE",
                    "PULSE",
                    "PULSE",
                    "PULSE",
                    "PULSE",
                    "PULSE",
                    "PULSE",
                    "PULSE",
                    "PULSE",
                    "SYSBP",
                    "SYSBP",
                    "SYSBP",
                    "SYSBP",
                    "SYSBP",
                    "SYSBP",
                    "SYSBP",
                    "SYSBP",
                    "SYSBP",
                    "SYSBP",
                    "SYSBP",
                    "SYSBP",
                    "SYSBP",
                    "SYSBP",
                    "SYSBP",
                    "SYSBP",
                    "SYSBP",
                    "SYSBP",
                    "SYSBP",
                    "SYSBP",
                    "SYSBP",
                    "SYSBP",
                    "SYSBP",
                    "SYSBP",
                    "SYSBP",
                    "SYSBP",
                    "SYSBP",
                    "TEMP",
                    "TEMP",
                    "TEMP",
                    "TEMP",
                    "TEMP",
                    "TEMP",
                    "TEMP",
                    "TEMP",
                    "TEMP",
                    "WEIGHT",
                    "WEIGHT",
                    "WEIGHT",
                    "WEIGHT",
                    "WEIGHT",
                    "WEIGHT",
                    "WEIGHT",
                    "DIABP",
                    "DIABP",
                    "DIABP",
                    "DIABP",
                    "DIABP",
                    "DIABP",
                    "DIABP",
                    "DIABP",
                    "DIABP",
                    "DIABP",
                    "DIABP",
                    "DIABP",
                    "DIABP",
                    "DIABP",
                    "DIABP",
                    "DIABP",
                    "DIABP",
                    "DIABP",
                    "DIABP",
                    "DIABP",
                    "DIABP",
                    "DIABP",
                    "DIABP",
                    "DIABP",
                    "DIABP",
                    "DIABP",
                    "DIABP",
                    "DIABP",
                    "DIABP",
                    "DIABP",
                    "DIABP",
                    "DIABP",
                    "DIABP",
                    "HEIGHT",
                    "PULSE",
                    "PULSE",
                    "PULSE",
                    "PULSE",
                    "PULSE",
                    "PULSE",
                    "PULSE",
                    "PULSE",
                    "PULSE",
                    "PULSE",
                    "PULSE",
                    "PULSE",
                    "PULSE",
                    "PULSE",
                    "PULSE",
                    "PULSE",
                    "PULSE",
                    "PULSE",
                    "PULSE",
                    "PULSE",
                    "PULSE",
                    "PULSE",
                    "PULSE",
                    "PULSE",
                    "PULSE",
                    "PULSE",
                    "PULSE",
                    "PULSE",
                    "PULSE",
                    "PULSE",
                    "PULSE",
                    "PULSE",
                    "PULSE",
                    "SYSBP",
                    "SYSBP",
                    "SYSBP",
                    "SYSBP",
                    "SYSBP",
                    "SYSBP",
                    "SYSBP",
                    "SYSBP",
                    "SYSBP",
                    "SYSBP",
                    "SYSBP",
                    "SYSBP",
                    "SYSBP",
                    "SYSBP",
                    "SYSBP",
                    "SYSBP",
                    "SYSBP",
                    "SYSBP",
                    "SYSBP",
                    "SYSBP",
                    "SYSBP",
                    "SYSBP",
                    "SYSBP",
                    "SYSBP",
                    "SYSBP",
                    "SYSBP",
                    "SYSBP",
                    "SYSBP",
                    "SYSBP",
                    "SYSBP",
                    "SYSBP",
                    "SYSBP",
                    "SYSBP",
                    "TEMP",
                    "TEMP",
                    "TEMP",
                    "TEMP",
                    "TEMP",
                    "TEMP",
                    "TEMP",
                    "TEMP",
                    "TEMP",
                    "TEMP",
                    "TEMP",
                    "WEIGHT",
                    "WEIGHT",
                    "WEIGHT",
                    "WEIGHT",
                    "WEIGHT",
                    "WEIGHT",
                    "WEIGHT",
                    "WEIGHT",
                    "WEIGHT",
                    "WEIGHT",
                    "DIABP",
                    "DIABP",
                    "DIABP",
                    "DIABP",
                    "DIABP",
                    "DIABP",
                    "DIABP",
                    "DIABP",
                    "DIABP",
                    "DIABP",
                    "DIABP",
                    "DIABP",
                    "DIABP",
                    "DIABP",
                    "DIABP",
                    "DIABP",
                    "DIABP",
                    "DIABP",
                    "DIABP",
                    "DIABP",
                    "DIABP",
                    "DIABP",
                    "DIABP",
                    "DIABP",
                    "DIABP",
                    "DIABP",
                    "DIABP",
                    "DIABP",
                    "DIABP",
                    "DIABP",
                    "DIABP",
                    "DIABP",
                    "DIABP",
                    "DIABP",
                    "DIABP",
                    "DIABP",
                    "HEIGHT",
                    "PULSE",
                    "PULSE",
                    "PULSE",
                    "PULSE",
                    "PULSE",
                    "PULSE",
                    "PULSE",
                    "PULSE",
                    "PULSE",
                    "PULSE",
                    "PULSE",
                    "PULSE",
                    "PULSE",
                    "PULSE",
                    "PULSE",
                    "PULSE",
                    "PULSE",
                    "PULSE",
                    "PULSE",
                    "PULSE",
                    "PULSE",
                    "PULSE",
                    "PULSE",
                    "PULSE",
                    "PULSE",
                    "PULSE",
                    "PULSE",
                    "PULSE",
                    "PULSE",
                    "PULSE",
                    "PULSE",
                    "PULSE",
                    "PULSE",
                    "PULSE",
                    "PULSE",
                    "PULSE",
                    "SYSBP",
                    "SYSBP",
                    "SYSBP",
                    "SYSBP",
                    "SYSBP",
                    "SYSBP",
                    "SYSBP",
                    "SYSBP",
                    "SYSBP",
                    "SYSBP",
                    "SYSBP",
                    "SYSBP",
                    "SYSBP",
                    "SYSBP",
                    "SYSBP",
                    "SYSBP",
                    "SYSBP",
                    "SYSBP",
                    "SYSBP",
                    "SYSBP",
                    "SYSBP",
                    "SYSBP",
                    "SYSBP",
                    "SYSBP",
                    "SYSBP",
                    "SYSBP",
                    "SYSBP",
                    "SYSBP",
                    "SYSBP",
                    "SYSBP",
                    "SYSBP",
                    "SYSBP",
                    "SYSBP",
                    "SYSBP",
                    "SYSBP",
                    "SYSBP",
                    "TEMP",
                    "TEMP",
                    "TEMP",
                    "TEMP",
                    "TEMP",
                    "TEMP",
                    "TEMP",
                    "TEMP",
                    "TEMP",
                    "TEMP",
                    "TEMP",
                    "TEMP",
                    "WEIGHT",
                    "WEIGHT",
                    "WEIGHT",
                    "WEIGHT",
                    "WEIGHT",
                    "WEIGHT",
                    "WEIGHT",
                    "WEIGHT",
                    "WEIGHT",
                    "WEIGHT",
                    "WEIGHT",
                    "DIABP",
                    "DIABP",
                    "DIABP",
                    "DIABP",
                    "DIABP",
                    "DIABP",
                    "DIABP",
                    "DIABP",
                    "DIABP",
                    "DIABP",
                    "DIABP",
                    "DIABP",
                    "DIABP",
                    "DIABP",
                    "DIABP",
                    "DIABP",
                    "DIABP",
                    "DIABP",
                    "HEIGHT",
                    "PULSE",
                    "PULSE",
                    "PULSE",
                    "PULSE",
                    "PULSE",
                    "PULSE",
                    "PULSE",
                    "PULSE",
                    "PULSE",
                    "PULSE",
                    "PULSE",
                    "PULSE",
                    "PULSE",
                    "PULSE",
                    "PULSE",
                    "PULSE",
                    "PULSE",
                    "PULSE",
                    "SYSBP",
                    "SYSBP",
                    "SYSBP",
                    "SYSBP",
                    "SYSBP",
                    "SYSBP",
                    "SYSBP",
                    "SYSBP",
                    "SYSBP",
                    "SYSBP",
                    "SYSBP",
                    "SYSBP",
                    "SYSBP",
                    "SYSBP",
                    "SYSBP",
                    "SYSBP",
                    "SYSBP",
                    "SYSBP",
                    "TEMP",
                    "TEMP",
                    "TEMP",
                    "TEMP",
                    "TEMP",
                    "TEMP",
                    "WEIGHT",
                    "WEIGHT",
                    "WEIGHT",
                    "WEIGHT",
                    "WEIGHT",
                    "DIABP",
                    "DIABP",
                    "DIABP",
                    "DIABP",
                    "DIABP",
                    "DIABP",
                    "DIABP",
                    "DIABP",
                    "DIABP",
                    "DIABP",
                    "DIABP",
                    "DIABP",
                    "DIABP",
                    "DIABP",
                    "DIABP",
                    "DIABP",
                    "DIABP",
                    "DIABP",
                    "DIABP",
                    "HEIGHT",
                    "PULSE",
                    "PULSE",
                    "PULSE",
                    "PULSE",
                    "PULSE",
                    "PULSE",
                    "PULSE",
                    "PULSE",
                    "PULSE",
                    "PULSE",
                    "PULSE",
                    "PULSE",
                    "PULSE",
                    "PULSE",
                    "PULSE",
                    "PULSE",
                    "PULSE",
                    "PULSE",
                    "PULSE",
                    "SYSBP",
                    "SYSBP",
                    "SYSBP",
                    "SYSBP",
                    "SYSBP",
                    "SYSBP",
                    "SYSBP",
                    "SYSBP",
                    "SYSBP",
                    "SYSBP",
                    "SYSBP",
                    "SYSBP",
                    "SYSBP",
                    "SYSBP",
                    "SYSBP",
                    "SYSBP",
                    "SYSBP",
                    "SYSBP",
                    "SYSBP",
                    "TEMP",
                    "TEMP",
                    "TEMP",
                    "TEMP",
                    "TEMP",
                    "TEMP",
                    "TEMP",
                    "WEIGHT",
                    "WEIGHT",
                    "WEIGHT",
                    "WEIGHT",
                    "WEIGHT",
                    "DIABP",
                    "DIABP",
                    "DIABP",
                    "DIABP",
                    "DIABP",
                    "DIABP",
                    "DIABP",
                    "DIABP",
                    "DIABP",
                    "DIABP",
                    "DIABP",
                    "DIABP",
                    "DIABP",
                    "DIABP",
                    "DIABP",
                    "DIABP",
                    "DIABP",
                    "DIABP",
                    "DIABP",
                    "DIABP",
                    "DIABP",
                    "DIABP",
                    "DIABP",
                    "DIABP",
                    "DIABP",
                    "DIABP",
                    "DIABP",
                    "DIABP",
                    "DIABP",
                    "DIABP",
                    "HEIGHT",
                    "PULSE",
                    "PULSE",
                    "PULSE",
                    "PULSE",
                    "PULSE",
                    "PULSE",
                    "PULSE",
                    "PULSE",
                    "PULSE",
                    "PULSE",
                    "PULSE",
                    "PULSE",
                    "PULSE",
                    "PULSE",
                    "PULSE",
                    "PULSE",
                    "PULSE",
                    "PULSE",
                    "PULSE",
                    "PULSE",
                    "PULSE",
                    "PULSE",
                    "PULSE",
                    "PULSE",
                    "PULSE",
                    "PULSE",
                    "PULSE",
                    "PULSE",
                    "PULSE",
                    "PULSE",
                    "SYSBP",
                    "SYSBP",
                    "SYSBP",
                    "SYSBP",
                    "SYSBP",
                    "SYSBP",
                    "SYSBP",
                    "SYSBP",
                    "SYSBP",
                    "SYSBP",
                    "SYSBP",
                    "SYSBP",
                    "SYSBP",
                    "SYSBP",
                    "SYSBP",
                    "SYSBP",
                    "SYSBP",
                    "SYSBP",
                    "SYSBP",
                    "SYSBP",
                    "SYSBP",
                    "SYSBP",
                    "SYSBP",
                    "SYSBP",
                    "SYSBP",
                    "SYSBP",
                    "SYSBP",
                    "SYSBP",
                    "SYSBP",
                    "SYSBP",
                    "TEMP",
                    "TEMP",
                    "TEMP",
                    "TEMP",
                    "TEMP",
                    "TEMP",
                    "TEMP",
                    "TEMP",
                    "TEMP",
                    "TEMP",
                    "WEIGHT",
                    "WEIGHT",
                    "WEIGHT",
                    "WEIGHT",
                    "WEIGHT",
                    "WEIGHT",
                    "WEIGHT",
                    "WEIGHT",
                    "WEIGHT",
                    "DIABP",
                    "DIABP",
                    "DIABP",
                    "DIABP",
                    "DIABP",
                    "DIABP",
                    "DIABP",
                    "DIABP",
                    "DIABP",
                    "DIABP",
                    "DIABP",
                    "DIABP",
                    "DIABP",
                    "DIABP",
                    "DIABP",
                    "DIABP",
                    "DIABP",
                    "DIABP",
                    "DIABP",
                    "DIABP",
                    "DIABP",
                    "DIABP",
                    "HEIGHT",
                    "PULSE",
                    "PULSE",
                    "PULSE",
                    "PULSE",
                    "PULSE",
                    "PULSE",
                    "PULSE",
                    "PULSE",
                    "PULSE",
                    "PULSE",
                    "PULSE",
                    "PULSE",
                    "PULSE",
                    "PULSE",
                    "PULSE",
                    "PULSE",
                    "PULSE",
                    "PULSE",
                    "PULSE",
                    "PULSE",
                    "PULSE",
                    "PULSE",
                    "SYSBP",
                    "SYSBP",
                    "SYSBP",
                    "SYSBP",
                    "SYSBP",
                    "SYSBP",
                    "SYSBP",
                    "SYSBP",
                    "SYSBP",
                    "SYSBP",
                    "SYSBP",
                    "SYSBP",
                    "SYSBP",
                    "SYSBP",
                    "SYSBP",
                    "SYSBP",
                    "SYSBP",
                    "SYSBP",
                    "SYSBP",
                    "SYSBP",
                    "SYSBP",
                    "SYSBP",
                    "TEMP",
                    "TEMP",
                    "TEMP",
                    "TEMP",
                    "TEMP",
                    "TEMP",
                    "TEMP",
                    "TEMP",
                    "TEMP",
                    "TEMP",
                    "TEMP",
                    "TEMP",
                    "WEIGHT",
                    "WEIGHT",
                    "WEIGHT",
                    "WEIGHT",
                    "WEIGHT",
                    "WEIGHT",
                    "WEIGHT",
                    "WEIGHT",
                    "WEIGHT",
                    "WEIGHT",
                    "DIABP",
                    "DIABP",
                    "DIABP",
                    "DIABP",
                    "DIABP",
                    "DIABP",
                    "DIABP",
                    "DIABP",
                    "DIABP",
                    "HEIGHT",
                    "PULSE",
                    "PULSE",
                    "PULSE",
                    "PULSE",
                    "PULSE",
                    "PULSE",
                    "PULSE",
                    "PULSE",
                    "PULSE",
                    "SYSBP",
                    "SYSBP",
                    "SYSBP",
                    "SYSBP",
                    "SYSBP",
                    "SYSBP",
                    "SYSBP",
                    "SYSBP",
                    "SYSBP",
                    "TEMP",
                    "TEMP",
                    "TEMP",
                    "WEIGHT",
                    "WEIGHT",
                    "DIABP",
                    "DIABP",
                    "DIABP",
                    "DIABP",
                    "DIABP",
                    "DIABP",
                    "DIABP",
                    "DIABP",
                    "DIABP",
                    "DIABP",
                    "DIABP",
                    "DIABP",
                    "DIABP",
                    "DIABP",
                    "DIABP",
                    "DIABP",
                    "DIABP",
                    "DIABP",
                    "DIABP",
                    "DIABP",
                    "DIABP",
                    "DIABP",
                    "DIABP",
                    "DIABP",
                    "DIABP",
                    "DIABP",
                    "DIABP",
                    "DIABP",
                    "HEIGHT",
                    "PULSE",
                    "PULSE",
                    "PULSE",
                    "PULSE",
                    "PULSE",
                    "PULSE",
                    "PULSE",
                    "PULSE",
                    "PULSE",
                    "PULSE",
                    "PULSE",
                    "PULSE",
                    "PULSE",
                    "PULSE",
                    "PULSE",
                    "PULSE",
                    "PULSE",
                    "PULSE",
                    "PULSE",
                    "PULSE",
                    "PULSE",
                    "PULSE",
                    "PULSE",
                    "PULSE",
                    "PULSE",
                    "PULSE",
                    "PULSE",
                    "PULSE",
                    "SYSBP",
                    "SYSBP",
                    "SYSBP",
                    "SYSBP",
                    "SYSBP",
                    "SYSBP",
                    "SYSBP",
                    "SYSBP",
                    "SYSBP",
                    "SYSBP",
                    "SYSBP",
                    "SYSBP",
                    "SYSBP",
                    "SYSBP",
                    "SYSBP",
                    "SYSBP",
                    "SYSBP",
                    "SYSBP",
                    "SYSBP",
                    "SYSBP",
                    "SYSBP",
                    "SYSBP",
                    "SYSBP",
                    "SYSBP",
                    "SYSBP",
                    "SYSBP",
                    "SYSBP",
                    "SYSBP",
                    "TEMP",
                    "TEMP",
                    "TEMP",
                    "TEMP",
                    "TEMP",
                    "TEMP",
                    "TEMP",
                    "TEMP",
                    "TEMP",
                    "TEMP",
                    "TEMP",
                    "TEMP",
                    "WEIGHT",
                    "WEIGHT",
                    "WEIGHT",
                    "WEIGHT",
                    "WEIGHT",
                    "WEIGHT",
                    "WEIGHT",
                    "WEIGHT",
                    "WEIGHT",
                    "WEIGHT",
                    "WEIGHT",
                    "DIABP",
                    "DIABP",
                    "DIABP",
                    "DIABP",
                    "DIABP",
                    "DIABP",
                    "DIABP",
                    "DIABP",
                    "DIABP",
                    "DIABP",
                    "DIABP",
                    "DIABP",
                    "DIABP",
                    "DIABP",
                    "DIABP",
                    "DIABP",
                    "DIABP",
                    "DIABP",
                    "DIABP",
                    "DIABP",
                    "DIABP",
                    "DIABP",
                    "DIABP",
                    "DIABP",
                    "DIABP",
                    "DIABP",
                    "DIABP",
                    "DIABP",
                    "DIABP",
                    "DIABP",
                    "HEIGHT",
                    "PULSE",
                    "PULSE",
                    "PULSE",
                    "PULSE",
                    "PULSE",
                    "PULSE",
                    "PULSE",
                    "PULSE",
                    "PULSE",
                    "PULSE",
                    "PULSE",
                    "PULSE",
                    "PULSE",
                    "PULSE",
                    "PULSE",
                    "PULSE",
                    "PULSE",
