<?xml version="1.0" encoding="UTF-8"?><?xml-stylesheet type="text/xsl" href="define2-1.xsl"?><!-- ********************************************************************************* --><!-- File: defineV21-MSGv2.xml                                                          --><!-- Author: CDISC MSG v2 Team                                                         --><!-- Description: This is a draft define.xml V2.1.0 document based on the define.xml   --><!--    Metadata provided by the MSG v2 Team                                           --><!--    plus adjustments to comply with the Define-XML Specification Version 2.1.0     --><!-- Release Note(s):                                                                  --><!--  1. The resulting HTML presentation and the availability and usability of         --><!--      functions will vary depending upon which browser application used.           --><!-- ********************************************************************************* -->
<ODM xmlns="http://www.cdisc.org/ns/odm/v1.3" xmlns:xlink="http://www.w3.org/1999/xlink"
     xmlns:def="http://www.cdisc.org/ns/def/v2.1" ODMVersion="1.3.2"
     FileOID="www.cdisc.org/StudyMSGv2/1/Define-XML_2.1.0" FileType="Snapshot" CreationDateTime="2021-01-24T16:59:33"
     Originator="CDISC MSG Team" SourceSystem="M.Hungria-System" SourceSystemVersion="2.1-A1"
     def:Context="Submission"><!-- ******************************************  --><!-- OID conventions used in this example:       --><!--    Study                   = STDY.          --><!--    MetaDataVersion         = MDV.           --><!--    def:Standard            = STD.           --><!--    def:ValueListDef        = VL.            --><!--    def:WhereClauseDef      = WC.            --><!--    ItemGroupDef            = IG.            --><!--    ItemDef                 = IT.            --><!--    CodeList                = CL.            --><!--    MethodDef               = MT.            --><!--    def:CommentDef          = COM.           --><!--    def:leaf, leafID        = LF.            --><!-- ******************************************  -->
    <Study OID="cdisc.com/CDISCPILOT01">
        <GlobalVariables>
            <StudyName>CDISCPILOT01</StudyName>
            <StudyDescription>Study Data Tabulation Model Metadata Submission Guidelines Sample Study</StudyDescription>
            <ProtocolName>CDISCPILOT01</ProtocolName>
        </GlobalVariables>
        <MetaDataVersion OID="MDV.MSGv2.0.SDTMIG.3.3.SDTM.1.7" Name="Data Definitions for MSGv2.0 SDTM datasets."
                         Description="This metadata version contains only a subset of SDTM domains available in the SDTMIG 3.3. The data contained do not represent the data which would appear together in an actual regulatory submission."
                         def:DefineVersion="2.1.0"
                         def:CommentOID="COM.MDV"><!-- ************************************************************************** --><!-- Standard Definitions                                                       --><!-- ************************************************************************** -->
            <def:Standards>
                <def:Standard OID="STD.1" Name="STDTMIG" Type="IG" Version="3.3" Status="Final"
                              def:CommentOID="COM.ST1"/>
                <def:Standard OID="STD.2_1" Name="SDTMIG-MD" Type="IG" Version="1.1" Status="Final"
                              def:CommentOID="COM.ST2"/>
                <def:Standard OID="STD.4" Name="CDISC/NCI" Type="CT" PublishingSet="DEFINE-XML" Version="2020-12-18"
                              Status="Final" def:CommentOID="COM.ST4"/>
                <def:Standard OID="STD.3" Name="CDISC/NCI" Type="CT" PublishingSet="SDTM" Version="2020-12-18"
                              Status="Final" def:CommentOID="COM.ST3"/>
            </def:Standards><!-- ************************************************************************** --><!-- Supporting Documents                                                       --><!-- ************************************************************************** -->
            <def:SupplementalDoc>
                <def:DocumentRef leafID="LF.csdrg"/>
            </def:SupplementalDoc>
            <ItemGroupDef OID="IG.RELREC" Name="RELREC" Domain="RELREC" Repeating="Yes" IsReferenceData="No"
                          SASDatasetName="RELREC"
                          def:Structure="One record per related record, group of records or dataset"
                          Purpose="Tabulation" def:StandardOID="STD.1" def:ArchiveLocationID="LF.RELREC">
                <Description>
                    <TranslatedText xml:lang="en">Related Records</TranslatedText>
                </Description>
                <ItemRef ItemOID="IT.RELREC.STUDYID" Mandatory="Yes" OrderNumber="1" KeySequence="1" Role="Identifier"/>
                <ItemRef ItemOID="IT.RELREC.RDOMAIN" Mandatory="Yes" OrderNumber="2" KeySequence="2" Role="Identifier"/>
                <ItemRef ItemOID="IT.RELREC.USUBJID" Mandatory="No" OrderNumber="3" KeySequence="3" Role="Identifier"/>
                <ItemRef ItemOID="IT.RELREC.IDVAR" Mandatory="Yes" OrderNumber="4" KeySequence="4" Role="Identifier"/>
                <ItemRef ItemOID="IT.RELREC.IDVARVAL" Mandatory="No" OrderNumber="5" KeySequence="5" Role="Identifier"/>
                <ItemRef ItemOID="IT.RELREC.RELTYPE" Mandatory="No" OrderNumber="6" Role="Record Qualifier"/>
                <ItemRef ItemOID="IT.RELREC.RELID" Mandatory="Yes" OrderNumber="7" KeySequence="6"
                         Role="Record Qualifier"/>
                <def:Class Name="RELATIONSHIP"/>
                <def:leaf ID="LF.RELREC" xlink:href="relrec.xpt">
                    <def:title>relrec.xpt</def:title>
                </def:leaf>
            </ItemGroupDef>
            <ItemDef OID="IT.RELREC.STUDYID" Name="STUDYID" DataType="text" Length="12" SASFieldName="STUDYID">
                <Description>
                    <TranslatedText xml:lang="en">Study Identifier</TranslatedText>
                </Description>
                <def:Origin Type="Protocol" Source="Sponsor"/>
            </ItemDef>
            <ItemDef OID="IT.RELREC.RDOMAIN" Name="RDOMAIN" DataType="text" Length="6" SASFieldName="RDOMAIN">
                <Description>
                    <TranslatedText xml:lang="en">Related Domain Abbreviation</TranslatedText>
                </Description>
                <CodeListRef CodeListOID="CL.RDOMAIN_RELREC"/>
                <def:Origin Type="Assigned" Source="Sponsor"/>
            </ItemDef>
            <ItemDef OID="IT.RELREC.USUBJID" Name="USUBJID" DataType="text" Length="8" SASFieldName="USUBJID">
                <Description>
                    <TranslatedText xml:lang="en">Unique Subject Identifier</TranslatedText>
                </Description>
                <def:Origin Type="Assigned" Source="Sponsor"/>
            </ItemDef>
            <ItemDef OID="IT.RELREC.IDVAR" Name="IDVAR" DataType="text" Length="200" SASFieldName="IDVAR">
                <Description>
                    <TranslatedText xml:lang="en">Identifying Variable</TranslatedText>
                </Description>
                <def:Origin Type="Assigned" Source="Sponsor"/>
            </ItemDef>
            <ItemDef OID="IT.RELREC.IDVARVAL" Name="IDVARVAL" DataType="text" Length="200" SASFieldName="IDVARVAL">
                <Description>
                    <TranslatedText xml:lang="en">Identifying Variable Value</TranslatedText>
                </Description>
                <def:Origin Type="Assigned" Source="Sponsor"/>
            </ItemDef>
            <ItemDef OID="IT.RELREC.RELTYPE" Name="RELTYPE" DataType="text" Length="4" SASFieldName="RELTYPE">
                <Description>
                    <TranslatedText xml:lang="en">Relationship Type</TranslatedText>
                </Description>
                <CodeListRef CodeListOID="CL.RELTYPE"/>
                <def:Origin Type="Assigned" Source="Sponsor"/>
            </ItemDef>
            <ItemDef OID="IT.RELREC.RELID" Name="RELID" DataType="text" Length="200" SASFieldName="RELID">
                <Description>
                    <TranslatedText xml:lang="en">Relationship Identifier</TranslatedText>
                </Description>
                <def:Origin Type="Assigned" Source="Sponsor"/>
            </ItemDef><!-- ******************************** --><!-- Code List Definitions Section    --><!-- ******************************** -->
            <CodeList OID="CL.RDOMAIN_RELREC" Name="SDTM Domain Abbreviation, subset used for RELREC" DataType="text"
                      def:StandardOID="STD.3" SASFormatName="$FMT138">
                <CodeListItem CodedValue="AE" OrderNumber="1">
                    <Decode>
                        <TranslatedText xml:lang="en">Adverse Events</TranslatedText>
                    </Decode>
                    <Alias Context="nci:ExtCodeID" Name="C49562"/>
                </CodeListItem>
                <CodeListItem CodedValue="DS" OrderNumber="2">
                    <Decode>
                        <TranslatedText xml:lang="en">Disposition</TranslatedText>
                    </Decode>
                    <Alias Context="nci:ExtCodeID" Name="C49576"/>
                </CodeListItem>
                <CodeListItem CodedValue="DD" OrderNumber="3">
                    <Decode>
                        <TranslatedText xml:lang="en">Death Details</TranslatedText>
                    </Decode>
                    <Alias Context="nci:ExtCodeID" Name="C95087"/>
                </CodeListItem>
                <CodeListItem CodedValue="FA" OrderNumber="4">
                    <Decode>
                        <TranslatedText xml:lang="en">Findings About Events or Interventions</TranslatedText>
                    </Decode>
                    <Alias Context="nci:ExtCodeID" Name="C85442"/>
                </CodeListItem>
                <Alias Context="nci:ExtCodeID" Name="C66734"/>
            </CodeList>
            <CodeList OID="CL.RELTYPE" Name="Relationship Type" DataType="text" def:StandardOID="STD.3"
                      SASFormatName="$FMT139">
                <CodeListItem CodedValue="MANY" OrderNumber="1">
                    <Decode>
                        <TranslatedText xml:lang="en">Many</TranslatedText>
                    </Decode>
                    <Alias Context="nci:ExtCodeID" Name="C78728"/>
                </CodeListItem>
                <CodeListItem CodedValue="ONE" OrderNumber="2">
                    <Decode>
                        <TranslatedText xml:lang="en">One</TranslatedText>
                    </Decode>
                    <Alias Context="nci:ExtCodeID" Name="C66832"/>
                </CodeListItem>
                <Alias Context="nci:ExtCodeID" Name="C78737"/>
            </CodeList><!-- ******************************** --><!-- Leafs Definitions Section        --><!-- ******************************** -->
            <def:leaf ID="LF.acrf" xlink:href="acrf.pdf">
                <def:title>Annotated CRF</def:title>
            </def:leaf>
            <def:leaf ID="LF.csdrg" xlink:href="csdrg.pdf">
                <def:title>Reviewers Guide</def:title>
            </def:leaf><!-- ***********************************     --><!-- End of Metadata Definitions Section     --><!-- ***********************************     -->
        </MetaDataVersion>
    </Study>
</ODM>