{
    "datasets": [
        {
            "filename": "dm.xpt",
            "label": "Demographics",
            "domain": "DM",
            "variables": [
                {
                    "name": "STUDYID",
                    "label": "Study Identifier",
                    "type": "char",
                    "length": 12
                },
                {
                    "name": "DOMAIN",
                    "label": "Domain Abbreviation",
                    "type": "char",
                    "length": 2
                },
                {
                    "name": "USUBJID",
                    "label": "Unique Subject Identifier",
                    "type": "char",
                    "length": 8
                },
                {
                    "name": "SUBJID",
                    "label": "Subject Identifier for the Study",
                    "type": "char",
                    "length": 4
                },
                {
                    "name": "RFSTDTC",
                    "label": "Subject Reference Start Date/Time",
                    "type": "char",
                    "length": 10
                },
                {
                    "name": "RFENDTC",
                    "label": "Subject Reference End Date/Time",
                    "type": "char",
                    "length": 10
                },
                {
                    "name": "RFXSTDTC",
                    "label": "Date/Time of First Study Treatment",
                    "type": "char",
                    "length": 10
                },
                {
                    "name": "RFXENDTC",
                    "label": "Date/Time of Last Study Treatment",
                    "type": "char",
                    "length": 10
                },
                {
                    "name": "RFICDTC",
                    "label": "Date/Time of Informed Consent",
                    "type": "char",
                    "length": 10
                },
                {
                    "name": "RFPENDTC",
                    "label": "Date/Time of End of Participation",
                    "type": "char",
                    "length": 10
                },
                {
                    "name": "DTHDTC",
                    "label": "Date/Time of Death",
                    "type": "char",
                    "length": 10
                },
                {
                    "name": "DTHFL",
                    "label": "Subject Death Flag",
                    "type": "char",
                    "length": 1
                },
                {
                    "name": "SITEID",
                    "label": "Study Site Identifier",
                    "type": "char",
                    "length": 3
                },
                {
                    "name": "BRTHDTC",
                    "label": "Date/Time of Birth",
                    "type": "char",
                    "length": 10
                },
                {
                    "name": "AGE",
                    "label": "Age",
                    "type": "num",
                    "length": 8
                },
                {
                    "name": "AGEU",
                    "label": "Age Units",
                    "type": "char",
                    "length": 5
                },
                {
                    "name": "SEX",
                    "label": "Sex",
                    "type": "char",
                    "length": 1
                },
                {
                    "name": "RACE",
                    "label": "Race",
                    "type": "char",
                    "length": 41
                },
                {
                    "name": "ETHNIC",
                    "label": "Ethnicity",
                    "type": "char",
                    "length": 22
                },
                {
                    "name": "ARMCD",
                    "label": "Planned Arm Code",
                    "type": "char",
                    "length": 8
                },
                {
                    "name": "ARM",
                    "label": "Description of Planned Arm",
                    "type": "char",
                    "length": 28
                },
                {
                    "name": "ACTARMCD",
                    "label": "Actual Arm Code",
                    "type": "char",
                    "length": 8
                },
                {
                    "name": "ACTARM",
                    "label": "Description of Actual Arm",
                    "type": "char",
                    "length": 28
                },
                {
                    "name": "ARMNRS",
                    "label": "Reason Arm and/or Actual Arm is Null",
                    "type": "char",
                    "length": 14
                },
                {
                    "name": "ACTARMUD",
                    "label": "Description of Unplanned Actual Arm",
                    "type": "char",
                    "length": 200
                },
                {
                    "name": "COUNTRY",
                    "label": "Country",
                    "type": "char",
                    "length": 3
                }
            ],
            "records": {
                "STUDYID": [
                    "CDISCPILOT01",
                    "CDISCPILOT01",
                    "CDISCPILOT01",
                    "CDISCPILOT01",
                    "CDISCPILOT01",
                    "CDISCPILOT01",
                    "CDISCPILOT01",
                    "CDISCPILOT01",
                    "CDISCPILOT01",
                    "CDISCPILOT01",
                    "CDISCPILOT01",
                    "CDISCPILOT01",
                    "CDISCPILOT01",
                    "CDISCPILOT01",
                    "CDISCPILOT01",
                    "CDISCPILOT01",
                    "CDISCPILOT01",
                    "CDISCPILOT01"
                ],
                "DOMAIN": [
                    "DM",
                    "DM",
                    "DM",
                    "DM",
                    "DM",
                    "DM",
                    "DM",
                    "DM",
                    "DM",
                    "DM",
                    "DM",
                    "DM",
                    "DM",
                    "DM",
                    "DM",
                    "DM",
                    "DM",
                    "DM"
                ],
                "USUBJID": [
                    "CDISC001",
                    "CDISC002",
                    "CDISC003",
                    "CDISC004",
                    "CDISC005",
                    "CDISC006",
                    "CDISC007",
                    "CDISC008",
                    "CDISC009",
                    "CDISC010",
                    "CDISC011",
                    "CDISC012",
                    "CDISC013",
                    "CDISC014",
                    "CDISC015",
                    "CDISC016",
                    "CDISC017",
                    "CDISC018"
                ],
                "SUBJID": [
                    "1115",
                    "1211",
                    "1302",
                    "1345",
                    "1383",
                    "1429",
                    "1444",
                    "1445",
                    "1087",
                    "1236",
                    "1336",
                    "1378",
                    "1083",
                    "1012",
                    "1022",
                    "1143",
                    "1250",
                    "1427"
                ],
                "RFSTDTC": [
                    "2012-11-30",
                    "2012-11-15",
                    "2013-08-29",
                    "2013-10-08",
                    "2013-02-04",
                    "2013-03-19",
                    "2013-01-05",
                    "2014-05-11",
                    "2012-10-22",
                    "2013-09-21",
                    "2012-12-07",
                    "2013-09-03",
                    "2013-07-22",
                    "2013-04-03",
                    "",
                    "2013-04-03",
                    "2013-09-21",
                    "2012-12-17"
                ],
                "RFENDTC": [
                    "2013-01-23",
                    "2013-01-14",
                    "2013-11-05",
                    "2014-03-18",
                    "2013-08-06",
                    "2013-04-30",
                    "2013-02-13",
                    "2014-11-01",
                    "2013-04-28",
                    "2013-09-26",
                    "2013-06-05",
                    "2014-01-28",
                    "2013-08-03",
                    "2013-05-02",
                    "",
                    "2013-06-01",
                    "2014-02-08",
                    "2013-02-18"
                ],
                "RFXSTDTC": [
                    "2012-11-30",
                    "2012-11-15",
                    "2013-08-29",
                    "2013-10-08",
                    "2013-02-04",
                    "2013-03-19",
                    "2013-01-05",
                    "2014-05-11",
                    "2012-10-22",
                    "2013-09-21",
                    "2012-12-07",
                    "2013-09-03",
                    "2013-07-22",
                    "2013-04-03",
                    "",
                    "2013-04-03",
                    "2013-09-21",
                    "2012-12-17"
                ],
                "RFXENDTC": [
                    "2013-01-23",
                    "2013-01-12",
                    "2013-11-05",
                    "2014-03-18",
                    "2013-08-06",
                    "2013-04-30",
                    "2013-02-12",
                    "2014-11-01",
                    "2013-04-28",
                    "2013-09-21",
                    "2013-06-05",
                    "2014-01-28",
                    "2013-08-01",
                    "2013-04-29",
                    "",
                    "2013-05-30",
                    "2014-01-31",
                    "2013-02-11"
                ],
                "RFICDTC": [
                    "2012-11-23",
                    "2012-10-30",
                    "2013-08-20",
                    "2013-10-01",
                    "2013-01-22",
                    "2013-02-25",
                    "2012-12-31",
                    "2014-05-01",
                    "2012-10-06",
                    "2013-09-08",
                    "2012-11-21",
                    "2013-08-24",
                    "2013-07-09",
                    "2013-03-20",
                    "2014-03-17",
                    "2013-03-30",
                    "2013-08-21",
                    "2012-12-13"
                ],
                "RFPENDTC": [
                    "2013-05-20",
                    "2013-01-14",
                    "2014-02-13",
                    "2014-03-18",
                    "2013-08-06",
                    "2013-04-30",
                    "2013-06-20",
                    "2014-11-01",
                    "2013-04-28",
                    "2013-09-26",
                    "2013-07-05",
                    "2014-01-28",
                    "2013-08-03",
                    "2013-09-18",
                    "2014-03-17",
                    "2013-09-22",
                    "2014-03-08",
                    "2013-06-03"
                ],
                "DTHDTC": [
                    "",
                    "2013-01-14",
                    "",
                    "",
                    "",
                    "",
                    "",
                    "2014-11-01",
                    "",
                    "",
                    "",
                    "",
                    "2013-08-03",
                    "",
                    "",
                    "",
                    "",
                    ""
                ],
                "DTHFL": [
                    "",
                    "Y",
                    "",
                    "",
                    "",
                    "",
                    "",
                    "Y",
                    "",
                    "",
                    "",
                    "",
                    "Y",
                    "",
                    "",
                    "",
                    "",
                    ""
                ],
                "SITEID": [
                    "701",
                    "701",
                    "701",
                    "701",
                    "701",
                    "701",
                    "701",
                    "704",
                    "708",
                    "708",
                    "708",
                    "708",
                    "710",
                    "711",
                    "711",
                    "711",
                    "718",
                    "718"
                ],
                "BRTHDTC": [
                    "1928",
                    "1936",
                    "1951",
                    "1950",
                    "1941",
                    "1929",
                    "1949",
                    "1939",
                    "1938",
                    "1927",
                    "1939",
                    "1946",
                    "1924",
                    "1945",
                    "1928",
                    "1936",
                    "1931",
                    "1938"
                ],
                "AGE": [
                    84,
                    76,
                    61,
                    63,
                    72,
                    84,
                    63,
                    75,
                    74,
                    86,
                    73,
                    67,
                    89,
                    67,
                    86,
                    76,
                    82,
                    74
                ],
                "AGEU": [
                    "YEARS",
                    "YEARS",
                    "YEARS",
                    "YEARS",
                    "YEARS",
                    "YEARS",
                    "YEARS",
                    "YEARS",
                    "YEARS",
                    "YEARS",
                    "YEARS",
                    "YEARS",
                    "YEARS",
                    "YEARS",
                    "YEARS",
                    "YEARS",
                    "YEARS",
                    "YEARS"
                ],
                "SEX": [
                    "M",
                    "F",
                    "M",
                    "F",
                    "F",
                    "F",
                    "M",
                    "M",
                    "F",
                    "F",
                    "M",
                    "M",
                    "F",
                    "F",
                    "F",
                    "F",
                    "F",
                    "F"
                ],
                "RACE": [
                    "WHITE",
                    "WHITE",
                    "WHITE",
                    "WHITE",
                    "WHITE",
                    "WHITE",
                    "WHITE",
                    "MULTIPLE",
                    "WHITE",
                    "WHITE",
                    "WHITE",
                    "BLACK OR AFRICAN AMERICAN",
                    "WHITE",
                    "WHITE",
                    "WHITE",
                    "WHITE",
                    "WHITE",
                    "BLACK OR AFRICAN AMERICAN"
                ],
                "ETHNIC": [
                    "NOT HISPANIC OR LATINO",
                    "NOT HISPANIC OR LATINO",
                    "NOT HISPANIC OR LATINO",
                    "NOT HISPANIC OR LATINO",
                    "NOT HISPANIC OR LATINO",
                    "NOT HISPANIC OR LATINO",
                    "HISPANIC OR LATINO",
                    "NOT HISPANIC OR LATINO",
                    "NOT HISPANIC OR LATINO",
                    "NOT HISPANIC OR LATINO",
                    "NOT HISPANIC OR LATINO",
                    "NOT HISPANIC OR LATINO",
                    "NOT HISPANIC OR LATINO",
                    "NOT HISPANIC OR LATINO",
                    "NOT HISPANIC OR LATINO",
                    "NOT HISPANIC OR LATINO",
                    "HISPANIC OR LATINO",
                    "NOT HISPANIC OR LATINO"
                ],
                "ARMCD": [
                    "ZAN_LOW",
                    "ZAN_LOW",
                    "ZAN_HIGH",
                    "PLACEBO",
                    "ZAN_HIGH",
                    "ZAN_LOW",
                    "ZAN_HIGH",
                    "PLACEBO",
                    "PLACEBO",
                    "ZAN_HIGH",
                    "ZAN_HIGH",
                    "PLACEBO",
                    "PLACEBO",
                    "ZAN_HIGH",
                    "",
                    "ZAN_LOW",
                    "ZAN_LOW",
                    "ZAN_HIGH"
                ],
                "ARM": [
                    "Zanomaline Low Dose (54 mg)",
                    "Zanomaline Low Dose (54 mg)",
                    "Zanomaline High Dose (81 mg)",
                    "Placebo",
                    "Zanomaline High Dose (81 mg)",
                    "Zanomaline Low Dose (54 mg)",
                    "Zanomaline High Dose (81 mg)",
                    "Placebo",
                    "Placebo",
                    "Zanomaline High Dose (81 mg)",
                    "Zanomaline High Dose (81 mg)",
                    "Placebo",
                    "Placebo",
                    "Zanomaline High Dose (81 mg)",
                    "",
                    "Zanomaline Low Dose (54 mg)",
                    "Zanomaline Low Dose (54 mg)",
                    "Zanomaline High Dose (81 mg)"
                ],
                "ACTARMCD": [
                    "ZAN_LOW",
                    "ZAN_LOW",
                    "ZAN_HIGH",
                    "PLACEBO",
                    "ZAN_HIGH",
                    "ZAN_LOW",
                    "ZAN_HIGH",
                    "PLACEBO",
                    "PLACEBO",
                    "ZAN_HIGH",
                    "ZAN_HIGH",
                    "PLACEBO",
                    "PLACEBO",
                    "ZAN_HIGH",
                    "",
                    "ZAN_LOW",
                    "ZAN_LOW",
                    "ZAN_HIGH"
                ],
                "ACTARM": [
                    "Zanomaline Low Dose (54 mg)",
                    "Zanomaline Low Dose (54 mg)",
                    "Zanomaline High Dose (81 mg)",
                    "Placebo",
                    "Zanomaline High Dose (81 mg)",
                    "Zanomaline Low Dose (54 mg)",
                    "Zanomaline High Dose (81 mg)",
                    "Placebo",
                    "Placebo",
                    "Zanomaline High Dose (81 mg)",
                    "Zanomaline High Dose (81 mg)",
                    "Placebo",
                    "Placebo",
                    "Zanomaline High Dose (81 mg)",
                    "",
                    "Zanomaline Low Dose (54 mg)",
                    "Zanomaline Low Dose (54 mg)",
                    "Zanomaline High Dose (81 mg)"
                ],
                "ARMNRS": [
                    "",
                    "",
                    "",
                    "",
                    "",
                    "",
                    "",
                    "",
                    "",
                    "",
                    "",
                    "",
                    "",
                    "",
                    "SCREEN FAILURE",
                    "",
                    "",
                    ""
                ],
                "ACTARMUD": [
                    "",
                    "",
                    "",
                    "",
                    "",
                    "",
                    "",
                    "",
                    "",
                    "",
                    "",
                    "",
                    "",
                    "",
                    "",
                    "",
                    "",
                    ""
                ],
                "COUNTRY": [
                    "USA",
                    "USA",
                    "USA",
                    "USA",
                    "USA",
                    "USA",
                    "USA",
                    "USA",
                    "USA",
                    "USA",
                    "USA",
                    "USA",
                    "USA",
                    "USA",
                    "USA",
                    "USA",
                    "USA",
                    "USA"
                ]
            }
        },
        {
            "filename": "ae.xpt",
            "label": "Adverse Events",
            "domain": "AE",
            "variables": [
                {
                    "name": "STUDYID",
                    "label": "Study Identifier",
                    "type": "char",
                    "length": 12
                },
                {
                    "name": "DOMAIN",
                    "label": "Domain Abbreviation",
                    "type": "char",
                    "length": 2
                },
                {
                    "name": "USUBJID",
                    "label": "Unique Subject Identifier",
                    "type": "char",
                    "length": 8
                },
                {
                    "name": "AESEQ",
                    "label": "Sequence Number",
                    "type": "num",
                    "length": 8
                },
                {
                    "name": "AELNKID",
                    "label": "Link ID",
                    "type": "char",
                    "length": 50
                },
                {
                    "name": "AETERM",
                    "label": "Reported Term for the Adverse Event",
                    "type": "char",
                    "length": 200
                },
                {
                    "name": "AELLT",
                    "label": "Lowest Level Term",
                    "type": "char",
                    "length": 1
                },
                {
                    "name": "AELLTCD",
                    "label": "Lowest Level Term Code",
                    "type": "char",
                    "length": 1
                },
                {
                    "name": "AEDECOD",
                    "label": "Dictionary-Derived Term",
                    "type": "char",
                    "length": 1
                },
                {
                    "name": "AEPTCD",
                    "label": "Preferred Term Code",
                    "type": "char",
                    "length": 1
                },
                {
                    "name": "AEHLT",
                    "label": "High Level Term",
                    "type": "char",
                    "length": 1
                },
                {
                    "name": "AEHLTCD",
                    "label": "High Level Term Code",
                    "type": "char",
                    "length": 1
                },
                {
                    "name": "AEHLGT",
                    "label": "High Level Group Term",
                    "type": "char",
                    "length": 1
                },
                {
                    "name": "AEHLGTCD",
                    "label": "High Level Group Term Code",
                    "type": "char",
                    "length": 1
                },
                {
                    "name": "AEBODSYS",
                    "label": "Body System or Organ Class",
                    "type": "char",
                    "length": 1
                },
                {
                    "name": "AEBDSYCD",
                    "label": "Body System or Organ Class Code",
                    "type": "char",
                    "length": 1
                },
                {
                    "name": "AESOC",
                    "label": "Primary System Organ Class",
                    "type": "char",
                    "length": 1
                },
                {
                    "name": "AESOCCD",
                    "label": "Primary System Organ Class Code",
                    "type": "char",
                    "length": 1
                },
                {
                    "name": "AESEV",
                    "label": "Severity/Intensity",
                    "type": "char",
                    "length": 8
                },
                {
                    "name": "AESER",
                    "label": "Serious Event",
                    "type": "char",
                    "length": 1
                },
                {
                    "name": "AEACN",
                    "label": "Action Taken with Study Treatment",
                    "type": "char",
                    "length": 16
                },
                {
                    "name": "AEREL",
                    "label": "Causality",
                    "type": "char",
                    "length": 16
                },
                {
                    "name": "AEOUT",
                    "label": "Outcome of Adverse Event",
                    "type": "char",
                    "length": 32
                },
                {
                    "name": "AESCAN",
                    "label": "Involves Cancer",
                    "type": "char",
                    "length": 1
                },
                {
                    "name": "AESCONG",
                    "label": "Congenital Anomaly or Birth Defect",
                    "type": "char",
                    "length": 1
                },
                {
                    "name": "AESDISAB",
                    "label": "Persist or Signif Disability/Incapacity",
                    "type": "char",
                    "length": 1
                },
                {
                    "name": "AESDTH",
                    "label": "Results in Death",
                    "type": "char",
                    "length": 1
                },
                {
                    "name": "AESHOSP",
                    "label": "Requires or Prolongs Hospitalization",
                    "type": "char",
                    "length": 1
                },
                {
                    "name": "AESLIFE",
                    "label": "Is Life Threatening",
                    "type": "char",
                    "length": 1
                },
                {
                    "name": "AESOD",
                    "label": "Occurred with Overdose",
                    "type": "char",
                    "length": 1
                },
                {
                    "name": "EPOCH",
                    "label": "Epoch",
                    "type": "char",
                    "length": 9
                },
                {
                    "name": "AESTDTC",
                    "label": "Start Date/Time of Adverse Event",
                    "type": "char",
                    "length": 10
                },
                {
                    "name": "AEENDTC",
                    "label": "End Date/Time of Adverse Event",
                    "type": "char",
                    "length": 10
                },
                {
                    "name": "AESTDY",
                    "label": "Study Day of Start of Adverse Event",
                    "type": "num",
                    "length": 8
                },
                {
                    "name": "AEENDY",
                    "label": "Study Day of End of Adverse Event",
                    "type": "num",
                    "length": 8
                },
                {
                    "name": "AEENRTPT",
                    "label": "End Relative to Reference Time Point",
                    "type": "char",
                    "length": 7
                },
                {
                    "name": "AEENTPT",
                    "label": "End Reference Time Point",
                    "type": "char",
                    "length": 10
                }
            ],
            "records": {
                "STUDYID": [
                    "CDISCPILOT01",
                    "CDISCPILOT01",
                    "CDISCPILOT01",
                    "CDISCPILOT01",
                    "CDISCPILOT01",
                    "CDISCPILOT01",
                    "CDISCPILOT01",
                    "CDISCPILOT01",
                    "CDISCPILOT01",
                    "CDISCPILOT01",
                    "CDISCPILOT01",
                    "CDISCPILOT01",
                    "CDISCPILOT01",
                    "CDISCPILOT01",
                    "CDISCPILOT01",
                    "CDISCPILOT01",
                    "CDISCPILOT01",
                    "CDISCPILOT01",
                    "CDISCPILOT01",
                    "CDISCPILOT01",
                    "CDISCPILOT01",
                    "CDISCPILOT01",
                    "CDISCPILOT01",
                    "CDISCPILOT01",
                    "CDISCPILOT01",
                    "CDISCPILOT01",
                    "CDISCPILOT01",
                    "CDISCPILOT01",
                    "CDISCPILOT01",
                    "CDISCPILOT01",
                    "CDISCPILOT01",
                    "CDISCPILOT01",
                    "CDISCPILOT01",
                    "CDISCPILOT01",
                    "CDISCPILOT01",
                    "CDISCPILOT01",
                    "CDISCPILOT01",
                    "CDISCPILOT01",
                    "CDISCPILOT01",
                    "CDISCPILOT01",
                    "CDISCPILOT01",
                    "CDISCPILOT01",
                    "CDISCPILOT01",
                    "CDISCPILOT01",
                    "CDISCPILOT01",
                    "CDISCPILOT01",
                    "CDISCPILOT01",
                    "CDISCPILOT01",
                    "CDISCPILOT01",
                    "CDISCPILOT01",
                    "CDISCPILOT01",
                    "CDISCPILOT01",
                    "CDISCPILOT01",
                    "CDISCPILOT01",
                    "CDISCPILOT01",
                    "CDISCPILOT01",
                    "CDISCPILOT01",
                    "CDISCPILOT01",
                    "CDISCPILOT01",
                    "CDISCPILOT01",
                    "CDISCPILOT01",
                    "CDISCPILOT01",
                    "CDISCPILOT01",
                    "CDISCPILOT01",
                    "CDISCPILOT01",
                    "CDISCPILOT01",
                    "CDISCPILOT01",
                    "CDISCPILOT01",
                    "CDISCPILOT01",
                    "CDISCPILOT01",
                    "CDISCPILOT01",
                    "CDISCPILOT01",
                    "CDISCPILOT01",
                    "CDISCPILOT01"
                ],
                "DOMAIN": [
                    "AE",
                    "AE",
                    "AE",
                    "AE",
                    "AE",
                    "AE",
                    "AE",
                    "AE",
                    "AE",
                    "AE",
                    "AE",
                    "AE",
                    "AE",
                    "AE",
                    "AE",
                    "AE",
                    "AE",
                    "AE",
                    "AE",
                    "AE",
                    "AE",
                    "AE",
                    "AE",
                    "AE",
                    "AE",
                    "AE",
                    "AE",
                    "AE",
                    "AE",
                    "AE",
                    "AE",
                    "AE",
                    "AE",
                    "AE",
                    "AE",
                    "AE",
                    "AE",
                    "AE",
                    "AE",
                    "AE",
                    "AE",
                    "AE",
                    "AE",
                    "AE",
                    "AE",
                    "AE",
                    "AE",
                    "AE",
                    "AE",
                    "AE",
                    "AE",
                    "AE",
                    "AE",
                    "AE",
                    "AE",
                    "AE",
                    "AE",
                    "AE",
                    "AE",
                    "AE",
                    "AE",
                    "AE",
                    "AE",
                    "AE",
                    "AE",
                    "AE",
                    "AE",
                    "AE",
                    "AE",
                    "AE",
                    "AE",
                    "AE",
                    "AE",
                    "AE"
                ],
                "USUBJID": [
                    "CDISC001",
                    "CDISC001",
                    "CDISC002",
                    "CDISC002",
                    "CDISC002",
                    "CDISC002",
                    "CDISC002",
                    "CDISC002",
                    "CDISC002",
                    "CDISC002",
                    "CDISC002",
                    "CDISC003",
                    "CDISC003",
                    "CDISC003",
                    "CDISC003",
                    "CDISC003",
                    "CDISC003",
                    "CDISC003",
                    "CDISC003",
                    "CDISC003",
                    "CDISC003",
                    "CDISC003",
                    "CDISC003",
                    "CDISC003",
                    "CDISC003",
                    "CDISC003",
                    "CDISC003",
                    "CDISC003",
                    "CDISC003",
                    "CDISC003",
                    "CDISC005",
                    "CDISC005",
                    "CDISC005",
                    "CDISC005",
                    "CDISC005",
                    "CDISC005",
                    "CDISC005",
                    "CDISC007",
                    "CDISC007",
                    "CDISC007",
                    "CDISC008",
                    "CDISC009",
                    "CDISC009",
                    "CDISC009",
                    "CDISC009",
                    "CDISC011",
                    "CDISC011",
                    "CDISC011",
                    "CDISC011",
                    "CDISC013",
                    "CDISC014",
                    "CDISC014",
                    "CDISC016",
                    "CDISC016",
                    "CDISC016",
                    "CDISC016",
                    "CDISC016",
                    "CDISC016",
                    "CDISC016",
                    "CDISC017",
                    "CDISC017",
                    "CDISC017",
                    "CDISC017",
                    "CDISC017",
                    "CDISC018",
                    "CDISC018",
                    "CDISC018",
                    "CDISC018",
                    "CDISC018",
                    "CDISC018",
                    "CDISC018",
                    "CDISC018",
                    "CDISC018",
                    "CDISC018"
                ],
                "AESEQ": [
                    1,
                    2,
                    1,
                    2,
                    3,
                    4,
                    5,
                    6,
                    7,
                    8,
                    9,
                    1,
                    2,
                    3,
                    4,
                    5,
                    6,
                    7,
                    8,
                    9,
                    10,
                    11,
                    12,
                    13,
                    14,
                    15,
                    16,
                    17,
                    18,
                    19,
                    1,
                    2,
                    3,
                    4,
                    5,
                    6,
                    7,
                    1,
                    2,
                    3,
                    1,
                    1,
                    2,
                    3,
                    4,
                    1,
                    2,
                    3,
                    4,
                    1,
                    1,
                    2,
                    1,
                    2,
                    3,
                    4,
                    5,
                    6,
                    7,
                    1,
                    2,
                    3,
                    4,
                    5,
                    1,
                    2,
                    3,
                    4,
                    5,
                    6,
                    7,
                    8,
                    9,
                    10
                ],
                "AELNKID": [
                    "1",
                    "2",
                    "1",
                    "2",
                    "3",
                    "4",
                    "5",
                    "6",
                    "7",
                    "8",
                    "9",
                    "1",
                    "2",
                    "3",
                    "4",
                    "5",
                    "6",
                    "7",
                    "8",
                    "9",
                    "10",
                    "11",
                    "12",
                    "13",
                    "14",
                    "16",
                    "17",
                    "18",
                    "19",
                    "20",
                    "1",
                    "2",
                    "4",
                    "5",
                    "7",
                    "8",
                    "9",
                    "1",
                    "5",
                    "6",
                    "1",
                    "1",
                    "2",
                    "3",
                    "4",
                    "1",
                    "2",
                    "3",
                    "4",
                    "1",
                    "1",
                    "2",
                    "1",
                    "2",
                    "3",
                    "4",
                    "5",
                    "6",
                    "7",
                    "1",
                    "2",
                    "3",
                    "4",
                    "5",
                    "1",
                    "2",
                    "3",
                    "4",
                    "5",
                    "6",
                    "7",
                    "8",
                    "9",
                    "10"
                ],
                "AETERM": [
                    "INJECTION SITE REACTION",
                    "FATIGUE",
                    "INJECTION SITE REACTION",
                    "SHOULDER PAIN",
                    "JOINT DISLOCATION",
                    "INCONTINENCE",
                    "INJECTION SITE REACTION",
                    "SKIN LACERATION",
                    "CONFUSIONAL STATE",
                    "DYSPNOEA",
                    "SUDDEN DEATH",
                    "HYPERHIDROSIS",
                    "STOMACH DISCOMFORT",
                    "PAIN",
                    "NASAL CONGESTION",
                    "MALAISE",
                    "MYALGIA",
                    "PHARYNGOLARYNGEAL PAIN",
                    "PRODUCTIVE COUGH",
                    "DIZZINESS",
                    "DIZZINESS",
                    "CONTUSION",
                    "HEADACHE",
                    "EPISTAXIS",
                    "INJECTION SITE REACTION",
                    "RESPIRATORY TRACT CONGESTION",
                    "RHINITIS",
                    "FEELING ABNORMAL",
                    "LIBIDO DECREASED",
                    "LISTLESS",
                    "INJECTION SITE REACTION",
                    "INJECTION SITE REACTION",
                    "INJECTION SITE REACTION",
                    "INJECTION SITE REACTION",
                    "CHEST DISCOMFORT",
                    "HEADACHE",
                    "COUGH",
                    "INJECTION SITE REACTION",
                    "SALIVARY HYPERSECRETION",
                    "PARAESTHESIA",
                    "COMPLETED SUICIDE",
                    "HEART RATE IRREGULAR",
                    "DIZZINESS",
                    "HEADACHE",
                    "HEART RATE IRREGULAR",
                    "DIZZINESS",
                    "INJECTION SITE REACTION",
                    "DIZZINESS",
                    "INJECTION SITE REACTION",
                    "MYOCARDIAL INFARCTION",
                    "INJECTION SITE REACTION",
                    "NASOPHARYNGITIS",
                    "PARAESTHESIA ORAL",
                    "NASOPHARYNGITIS",
                    "SUPRAVENTRICULAR EXTRASYSTOLES",
                    "RASH PRURITIC",
                    "VENTRICULAR EXTRASYSTOLES",
                    "CONJUNCTIVAL HAEMORRHAGE",
                    "CERUMEN IMPACTION",
                    "FALL",
                    "BALANCE DISORDER",
                    "CONTUSION",
                    "COORDINATION ABNORMAL",
                    "INJECTION SITE REACTION",
                    "BACK PAIN",
                    "NAUSEA",
                    "AMNESIA",
                    "NAUSEA",
                    "LETHARGY",
                    "NAUSEA",
                    "NAUSEA",
                    "INJECTION SITE REACTION",
                    "DECREASED APPETITE",
                    "NAUSEA"
                ],
                "AELLT": [
                    "",
                    "",
                    "",
                    "",
                    "",
                    "",
                    "",
                    "",
                    "",
                    "",
                    "",
                    "",
                    "",
                    "",
                    "",
                    "",
                    "",
                    "",
                    "",
                    "",
                    "",
                    "",
                    "",
                    "",
                    "",
                    "",
                    "",
                    "",
                    "",
                    "",
                    "",
                    "",
                    "",
                    "",
                    "",
                    "",
                    "",
                    "",
                    "",
                    "",
                    "",
                    "",
                    "",
                    "",
                    "",
                    "",
                    "",
                    "",
                    "",
                    "",
                    "",
                    "",
                    "",
                    "",
                    "",
                    "",
                    "",
                    "",
                    "",
                    "",
                    "",
                    "",
                    "",
                    "",
                    "",
                    "",
                    "",
                    "",
                    "",
                    "",
                    "",
                    "",
                    "",
                    ""
                ],
                "AELLTCD": [
                    "",
                    "",
                    "",
                    "",
                    "",
                    "",
                    "",
                    "",
                    "",
                    "",
                    "",
                    "",
                    "",
                    "",
                    "",
                    "",
                    "",
                    "",
                    "",
                    "",
                    "",
                    "",
                    "",
                    "",
                    "",
                    "",
                    "",
                    "",
                    "",
                    "",
                    "",
                    "",
                    "",
                    "",
                    "",
                    "",
                    "",
                    "",
                    "",
                    "",
                    "",
                    "",
                    "",
                    "",
                    "",
                    "",
                    "",
                    "",
                    "",
                    "",
                    "",
                    "",
                    "",
                    "",
                    "",
                    "",
                    "",
                    "",
                    "",
                    "",
                    "",
                    "",
                    "",
                    "",
                    "",
                    "",
                    "",
                    "",
                    "",
                    "",
                    "",
                    "",
                    "",
                    ""
                ],
                "AEDECOD": [
                    "",
                    "",
                    "",
                    "",
                    "",
                    "",
                    "",
                    "",
                    "",
                    "",
                    "",
                    "",
                    "",
                    "",
                    "",
                    "",
                    "",
                    "",
                    "",
                    "",
                    "",
                    "",
                    "",
                    "",
                    "",
                    "",
                    "",
                    "",
                    "",
                    "",
                    "",
                    "",
                    "",
                    "",
                    "",
                    "",
                    "",
                    "",
                    "",
                    "",
                    "",
                    "",
                    "",
                    "",
                    "",
                    "",
                    "",
                    "",
                    "",
                    "",
                    "",
                    "",
                    "",
                    "",
                    "",
                    "",
                    "",
                    "",
                    "",
                    "",
                    "",
                    "",
                    "",
                    "",
                    "",
                    "",
                    "",
                    "",
                    "",
                    "",
                    "",
                    "",
                    "",
                    ""
                ],
                "AEPTCD": [
                    "",
                    "",
                    "",
                    "",
                    "",
                    "",
                    "",
                    "",
                    "",
                    "",
                    "",
                    "",
                    "",
                    "",
                    "",
                    "",
                    "",
                    "",
                    "",
                    "",
                    "",
                    "",
                    "",
                    "",
                    "",
                    "",
                    "",
                    "",
                    "",
                    "",
                    "",
                    "",
                    "",
                    "",
                    "",
                    "",
                    "",
                    "",
                    "",
                    "",
                    "",
                    "",
                    "",
                    "",
                    "",
                    "",
                    "",
                    "",
                    "",
                    "",
                    "",
                    "",
                    "",
                    "",
                    "",
                    "",
                    "",
                    "",
                    "",
                    "",
                    "",
                    "",
                    "",
                    "",
                    "",
                    "",
                    "",
                    "",
                    "",
                    "",
                    "",
                    "",
                    "",
                    ""
                ],
                "AEHLT": [
                    "",
                    "",
                    "",
                    "",
                    "",
                    "",
                    "",
                    "",
                    "",
                    "",
                    "",
                    "",
                    "",
                    "",
                    "",
                    "",
                    "",
                    "",
                    "",
                    "",
                    "",
                    "",
                    "",
                    "",
                    "",
                    "",
                    "",
                    "",
                    "",
                    "",
                    "",
                    "",
                    "",
                    "",
                    "",
                    "",
                    "",
                    "",
                    "",
                    "",
                    "",
                    "",
                    "",
                    "",
                    "",
                    "",
                    "",
                    "",
                    "",
                    "",
                    "",
                    "",
                    "",
                    "",
                    "",
                    "",
                    "",
                    "",
                    "",
                    "",
                    "",
                    "",
                    "",
                    "",
                    "",
                    "",
                    "",
                    "",
                    "",
                    "",
                    "",
                    "",
                    "",
                    ""
                ],
                "AEHLTCD": [
                    "",
                    "",
                    "",
                    "",
                    "",
                    "",
                    "",
                    "",
                    "",
                    "",
                    "",
                    "",
                    "",
                    "",
                    "",
                    "",
                    "",
                    "",
                    "",
                    "",
                    "",
                    "",
                    "",
                    "",
                    "",
                    "",
                    "",
                    "",
                    "",
                    "",
                    "",
                    "",
                    "",
                    "",
                    "",
                    "",
                    "",
                    "",
                    "",
                    "",
                    "",
                    "",
                    "",
                    "",
                    "",
                    "",
                    "",
                    "",
                    "",
                    "",
                    "",
                    "",
                    "",
                    "",
                    "",
                    "",
                    "",
                    "",
                    "",
                    "",
                    "",
                    "",
                    "",
                    "",
                    "",
                    "",
                    "",
                    "",
                    "",
                    "",
                    "",
                    "",
                    "",
                    ""
                ],
                "AEHLGT": [
                    "",
                    "",
                    "",
                    "",
                    "",
                    "",
                    "",
                    "",
                    "",
                    "",
                    "",
                    "",
                    "",
                    "",
                    "",
                    "",
                    "",
                    "",
                    "",
                    "",
                    "",
                    "",
                    "",
                    "",
                    "",
                    "",
                    "",
                    "",
                    "",
                    "",
                    "",
                    "",
                    "",
                    "",
                    "",
                    "",
                    "",
                    "",
                    "",
                    "",
                    "",
                    "",
                    "",
                    "",
                    "",
                    "",
                    "",
                    "",
                    "",
                    "",
                    "",
                    "",
                    "",
                    "",
                    "",
                    "",
                    "",
                    "",
                    "",
                    "",
                    "",
                    "",
                    "",
                    "",
                    "",
                    "",
                    "",
                    "",
                    "",
                    "",
                    "",
                    "",
                    "",
                    ""
                ],
                "AEHLGTCD": [
                    "",
                    "",
                    "",
                    "",
                    "",
                    "",
                    "",
                    "",
                    "",
                    "",
                    "",
                    "",
                    "",
                    "",
                    "",
                    "",
                    "",
                    "",
                    "",
                    "",
                    "",
                    "",
                    "",
                    "",
                    "",
                    "",
                    "",
                    "",
                    "",
                    "",
                    "",
                    "",
                    "",
                    "",
                    "",
                    "",
                    "",
                    "",
                    "",
                    "",
                    "",
                    "",
                    "",
                    "",
                    "",
                    "",
                    "",
                    "",
                    "",
                    "",
                    "",
                    "",
                    "",
                    "",
                    "",
                    "",
                    "",
                    "",
                    "",
                    "",
                    "",
                    "",
                    "",
                    "",
                    "",
                    "",
                    "",
                    "",
                    "",
                    "",
                    "",
                    "",
                    "",
                    ""
                ],
                "AEBODSYS": [
                    "",
                    "",
                    "",
                    "",
                    "",
                    "",
                    "",
                    "",
                    "",
                    "",
                    "",
                    "",
                    "",
                    "",
                    "",
                    "",
                    "",
                    "",
                    "",
                    "",
                    "",
                    "",
                    "",
                    "",
                    "",
                    "",
                    "",
                    "",
                    "",
                    "",
                    "",
                    "",
                    "",
                    "",
                    "",
                    "",
                    "",
                    "",
                    "",
                    "",
                    "",
                    "",
                    "",
                    "",
                    "",
                    "",
                    "",
                    "",
                    "",
                    "",
                    "",
                    "",
                    "",
                    "",
                    "",
                    "",
                    "",
                    "",
                    "",
                    "",
                    "",
                    "",
                    "",
                    "",
                    "",
                    "",
                    "",
                    "",
                    "",
                    "",
                    "",
                    "",
                    "",
                    ""
                ],
                "AEBDSYCD": [
                    "",
                    "",
                    "",
                    "",
                    "",
                    "",
                    "",
                    "",
                    "",
                    "",
                    "",
                    "",
                    "",
                    "",
                    "",
                    "",
                    "",
                    "",
                    "",
                    "",
                    "",
                    "",
                    "",
                    "",
                    "",
                    "",
                    "",
                    "",
                    "",
                    "",
                    "",
                    "",
                    "",
                    "",
                    "",
                    "",
                    "",
                    "",
                    "",
                    "",
                    "",
                    "",
                    "",
                    "",
                    "",
                    "",
                    "",
                    "",
                    "",
                    "",
                    "",
                    "",
                    "",
                    "",
                    "",
                    "",
                    "",
                    "",
                    "",
                    "",
                    "",
                    "",
                    "",
                    "",
                    "",
                    "",
                    "",
                    "",
                    "",
                    "",
                    "",
                    "",
                    "",
                    ""
                ],
                "AESOC": [
                    "",
                    "",
                    "",
                    "",
                    "",
                    "",
                    "",
                    "",
                    "",
                    "",
                    "",
                    "",
                    "",
                    "",
                    "",
                    "",
                    "",
                    "",
                    "",
                    "",
                    "",
                    "",
                    "",
                    "",
                    "",
                    "",
                    "",
                    "",
                    "",
                    "",
                    "",
                    "",
                    "",
                    "",
                    "",
                    "",
                    "",
                    "",
                    "",
                    "",
                    "",
                    "",
                    "",
                    "",
                    "",
                    "",
                    "",
                    "",
                    "",
                    "",
                    "",
                    "",
                    "",
                    "",
                    "",
                    "",
                    "",
                    "",
                    "",
                    "",
                    "",
                    "",
                    "",
                    "",
                    "",
                    "",
                    "",
                    "",
                    "",
                    "",
                    "",
                    "",
                    "",
                    ""
                ],
                "AESOCCD": [
                    "",
                    "",
                    "",
                    "",
                    "",
                    "",
                    "",
                    "",
                    "",
                    "",
                    "",
                    "",
                    "",
                    "",
                    "",
                    "",
                    "",
                    "",
                    "",
                    "",
                    "",
                    "",
                    "",
                    "",
                    "",
                    "",
                    "",
                    "",
                    "",
                    "",
                    "",
                    "",
                    "",
                    "",
                    "",
                    "",
                    "",
                    "",
                    "",
                    "",
                    "",
                    "",
                    "",
                    "",
                    "",
                    "",
                    "",
                    "",
                    "",
                    "",
                    "",
                    "",
                    "",
                    "",
                    "",
                    "",
                    "",
                    "",
                    "",
                    "",
                    "",
                    "",
                    "",
                    "",
                    "",
                    "",
                    "",
                    "",
                    "",
                    "",
                    "",
                    "",
                    "",
                    ""
                ],
                "AESEV": [
                    "MODERATE",
                    "MODERATE",
                    "MILD",
                    "MILD",
                    "MODERATE",
                    "MILD",
                    "MILD",
                    "MILD",
                    "MODERATE",
                    "MODERATE",
                    "SEVERE",
                    "MILD",
                    "MILD",
                    "MILD",
                    "MILD",
                    "MODERATE",
                    "MILD",
                    "MILD",
                    "MILD",
                    "MODERATE",
                    "MILD",
                    "MILD",
                    "MILD",
                    "MILD",
                    "MILD",
                    "MILD",
                    "MILD",
                    "MILD",
                    "MILD",
                    "MILD",
                    "MILD",
                    "MILD",
                    "MILD",
                    "MILD",
                    "MILD",
                    "MILD",
                    "MODERATE",
                    "MODERATE",
                    "MILD",
                    "MILD",
                    "SEVERE",
                    "MILD",
                    "MILD",
                    "MILD",
                    "MILD",
                    "MILD",
                    "MILD",
                    "MILD",
                    "MILD",
                    "SEVERE",
                    "MODERATE",
                    "MODERATE",
                    "MILD",
                    "SEVERE",
                    "MILD",
                    "MODERATE",
                    "MODERATE",
                    "MODERATE",
                    "MILD",
                    "MILD",
                    "MODERATE",
                    "MODERATE",
                    "MILD",
                    "MODERATE",
                    "MILD",
                    "MODERATE",
                    "MILD",
                    "MODERATE",
                    "MODERATE",
                    "MODERATE",
                    "SEVERE",
                    "MODERATE",
                    "MODERATE",
                    "MODERATE"
                ],
                "AESER": [
                    "N",
                    "N",
                    "N",
                    "N",
                    "N",
                    "N",
                    "N",
                    "N",
                    "N",
                    "N",
                    "Y",
                    "N",
                    "N",
                    "N",
                    "N",
                    "N",
                    "N",
                    "N",
                    "N",
                    "N",
                    "N",
                    "N",
                    "N",
                    "Y",
                    "N",
                    "N",
                    "N",
                    "N",
                    "N",
                    "N",
                    "N",
                    "N",
                    "N",
                    "N",
                    "N",
                    "N",
                    "N",
                    "N",
                    "N",
                    "N",
                    "Y",
                    "N",
                    "N",
                    "N",
                    "N",
                    "N",
                    "N",
                    "N",
                    "N",
                    "Y",
                    "N",
                    "N",
                    "N",
                    "N",
                    "N",
                    "N",
                    "N",
                    "N",
                    "N",
                    "N",
                    "N",
                    "N",
                    "N",
                    "N",
                    "N",
                    "N",
                    "N",
                    "N",
                    "N",
                    "N",
                    "N",
                    "N",
                    "N",
                    "N"
                ],
                "AEACN": [
                    "DRUG WITHDRAWN",
                    "DOSE NOT CHANGED",
                    "DOSE NOT CHANGED",
                    "DOSE NOT CHANGED",
                    "DOSE NOT CHANGED",
                    "DOSE NOT CHANGED",
                    "DOSE NOT CHANGED",
                    "DOSE NOT CHANGED",
                    "DOSE NOT CHANGED",
                    "DOSE NOT CHANGED",
                    "DRUG WITHDRAWN",
                    "DOSE NOT CHANGED",
                    "DOSE NOT CHANGED",
                    "DOSE NOT CHANGED",
                    "DOSE NOT CHANGED",
                    "DOSE NOT CHANGED",
                    "DOSE NOT CHANGED",
                    "DOSE NOT CHANGED",
                    "DOSE NOT CHANGED",
                    "DOSE NOT CHANGED",
                    "DOSE NOT CHANGED",
                    "DOSE NOT CHANGED",
                    "DOSE NOT CHANGED",
                    "DOSE NOT CHANGED",
                    "DOSE NOT CHANGED",
                    "DOSE NOT CHANGED",
                    "DOSE NOT CHANGED",
                    "DOSE NOT CHANGED",
                    "DOSE NOT CHANGED",
                    "DRUG WITHDRAWN",
                    "DOSE NOT CHANGED",
                    "DOSE NOT CHANGED",
                    "DOSE NOT CHANGED",
                    "DOSE NOT CHANGED",
                    "DOSE NOT CHANGED",
                    "DOSE NOT CHANGED",
                    "DOSE NOT CHANGED",
                    "DRUG WITHDRAWN",
                    "DOSE NOT CHANGED",
                    "DOSE NOT CHANGED",
                    "DRUG WITHDRAWN",
                    "DOSE NOT CHANGED",
                    "DOSE NOT CHANGED",
                    "DOSE NOT CHANGED",
                    "DOSE NOT CHANGED",
                    "DOSE NOT CHANGED",
                    "DOSE NOT CHANGED",
                    "DOSE NOT CHANGED",
                    "DOSE NOT CHANGED",
                    "DRUG WITHDRAWN",
                    "DOSE NOT CHANGED",
                    "DRUG WITHDRAWN",
                    "DOSE NOT CHANGED",
                    "DOSE NOT CHANGED",
                    "DOSE NOT CHANGED",
                    "DOSE NOT CHANGED",
                    "DOSE NOT CHANGED",
                    "DRUG WITHDRAWN",
                    "DOSE NOT CHANGED",
                    "DOSE NOT CHANGED",
                    "DOSE NOT CHANGED",
                    "DOSE NOT CHANGED",
                    "DOSE NOT CHANGED",
                    "DRUG WITHDRAWN",
                    "DOSE NOT CHANGED",
                    "DOSE NOT CHANGED",
                    "DOSE NOT CHANGED",
                    "DOSE NOT CHANGED",
                    "DOSE NOT CHANGED",
                    "DOSE NOT CHANGED",
                    "DOSE NOT CHANGED",
                    "DOSE NOT CHANGED",
                    "DOSE NOT CHANGED",
                    "DOSE NOT CHANGED"
                ],
                "AEREL": [
                    "RELATED",
                    "UNLIKELY RELATED",
                    "POSSIBLY RELATED",
                    "NOT RELATED",
                    "NOT RELATED",
                    "NOT RELATED",
                    "POSSIBLY RELATED",
                    "NOT RELATED",
                    "NOT RELATED",
                    "NOT RELATED",
                    "NOT RELATED",
                    "POSSIBLY RELATED",
                    "POSSIBLY RELATED",
                    "POSSIBLY RELATED",
                    "NOT RELATED",
                    "UNLIKELY RELATED",
                    "POSSIBLY RELATED",
                    "NOT RELATED",
                    "NOT RELATED",
                    "UNLIKELY RELATED",
                    "POSSIBLY RELATED",
                    "UNLIKELY RELATED",
                    "NOT RELATED",
                    "UNLIKELY RELATED",
                    "RELATED",
                    "NOT RELATED",
                    "NOT RELATED",
                    "POSSIBLY RELATED",
                    "POSSIBLY RELATED",
                    "POSSIBLY RELATED",
                    "RELATED",
                    "POSSIBLY RELATED",
                    "POSSIBLY RELATED",
                    "POSSIBLY RELATED",
                    "NOT RELATED",
                    "NOT RELATED",
                    "NOT RELATED",
                    "POSSIBLY RELATED",
                    "POSSIBLY RELATED",
                    "NOT RELATED",
                    "NOT RELATED",
                    "POSSIBLY RELATED",
                    "POSSIBLY RELATED",
                    "NOT RELATED",
                    "POSSIBLY RELATED",
                    "POSSIBLY RELATED",
                    "RELATED",
                    "POSSIBLY RELATED",
                    "RELATED",
                    "POSSIBLY RELATED",
                    "RELATED",
                    "NOT RELATED",
                    "POSSIBLY RELATED",
                    "NOT RELATED",
                    "POSSIBLY RELATED",
                    "RELATED",
                    "RELATED",
                    "UNLIKELY RELATED",
                    "NOT RELATED",
                    "UNLIKELY RELATED",
                    "POSSIBLY RELATED",
                    "UNLIKELY RELATED",
                    "POSSIBLY RELATED",
                    "RELATED",
                    "NOT RELATED",
                    "UNLIKELY RELATED",
                    "NOT RELATED",
                    "POSSIBLY RELATED",
                    "POSSIBLY RELATED",
                    "POSSIBLY RELATED",
                    "RELATED",
                    "RELATED",
                    "POSSIBLY RELATED",
                    "POSSIBLY RELATED"
                ],
                "AEOUT": [
                    "NOT RECOVERED/NOT RESOLVED",
                    "NOT RECOVERED/NOT RESOLVED",
                    "NOT RECOVERED/NOT RESOLVED",
                    "NOT RECOVERED/NOT RESOLVED",
                    "RECOVERED/RESOLVED",
                    "NOT RECOVERED/NOT RESOLVED",
                    "NOT RECOVERED/NOT RESOLVED",
                    "NOT RECOVERED/NOT RESOLVED",
                    "NOT RECOVERED/NOT RESOLVED",
                    "NOT RECOVERED/NOT RESOLVED",
                    "FATAL",
                    "NOT RECOVERED/NOT RESOLVED",
                    "NOT RECOVERED/NOT RESOLVED",
                    "NOT RECOVERED/NOT RESOLVED",
                    "NOT RECOVERED/NOT RESOLVED",
                    "NOT RECOVERED/NOT RESOLVED",
                    "NOT RECOVERED/NOT RESOLVED",
                    "NOT RECOVERED/NOT RESOLVED",
                    "NOT RECOVERED/NOT RESOLVED",
                    "RECOVERED/RESOLVED",
                    "NOT RECOVERED/NOT RESOLVED",
                    "RECOVERED/RESOLVED",
                    "NOT RECOVERED/NOT RESOLVED",
                    "NOT RECOVERED/NOT RESOLVED",
                    "NOT RECOVERED/NOT RESOLVED",
                    "NOT RECOVERED/NOT RESOLVED",
                    "NOT RECOVERED/NOT RESOLVED",
                    "NOT RECOVERED/NOT RESOLVED",
                    "NOT RECOVERED/NOT RESOLVED",
                    "NOT RECOVERED/NOT RESOLVED",
                    "RECOVERED/RESOLVED",
                    "NOT RECOVERED/NOT RESOLVED",
                    "RECOVERED/RESOLVED",
                    "NOT RECOVERED/NOT RESOLVED",
                    "RECOVERED/RESOLVED",
                    "RECOVERED/RESOLVED",
                    "RECOVERED/RESOLVED",
                    "NOT RECOVERED/NOT RESOLVED",
                    "NOT RECOVERED/NOT RESOLVED",
                    "RECOVERED/RESOLVED",
                    "FATAL",
                    "RECOVERED/RESOLVED",
                    "RECOVERED/RESOLVED",
                    "NOT RECOVERED/NOT RESOLVED",
                    "RECOVERED/RESOLVED",
                    "RECOVERED/RESOLVED",
                    "RECOVERED/RESOLVED",
                    "RECOVERED/RESOLVED",
                    "RECOVERED/RESOLVED",
                    "FATAL",
                    "RECOVERED/RESOLVED",
                    "NOT RECOVERED/NOT RESOLVED",
                    "NOT RECOVERED/NOT RESOLVED",
                    "RECOVERED/RESOLVED",
                    "RECOVERED/RESOLVED",
                    "RECOVERED/RESOLVED",
                    "RECOVERED/RESOLVED",
                    "NOT RECOVERED/NOT RESOLVED",
                    "NOT RECOVERED/NOT RESOLVED",
                    "RECOVERED/RESOLVED",
                    "RECOVERED/RESOLVED",
                    "RECOVERED/RESOLVED",
                    "RECOVERED/RESOLVED",
                    "RECOVERED/RESOLVED",
                    "RECOVERED/RESOLVED",
                    "RECOVERED/RESOLVED",
                    "RECOVERED/RESOLVED",
                    "RECOVERED/RESOLVED",
                    "RECOVERED/RESOLVED",
                    "RECOVERED/RESOLVED",
                    "RECOVERED/RESOLVED",
                    "RECOVERED/RESOLVED",
                    "RECOVERED/RESOLVED",
                    "RECOVERED/RESOLVED"
                ],
                "AESCAN": [
                    "N",
                    "N",
                    "N",
                    "N",
                    "N",
                    "N",
                    "N",
                    "N",
                    "N",
                    "N",
                    "N",
                    "N",
                    "N",
                    "N",
                    "N",
                    "N",
                    "N",
                    "N",
                    "N",
                    "N",
                    "N",
                    "N",
                    "N",
                    "N",
                    "N",
                    "N",
                    "N",
                    "N",
                    "N",
                    "N",
                    "N",
                    "N",
                    "N",
                    "N",
                    "N",
                    "N",
                    "N",
                    "N",
                    "N",
                    "N",
                    "N",
                    "N",
                    "N",
                    "N",
                    "N",
                    "N",
                    "N",
                    "N",
                    "N",
                    "N",
                    "N",
                    "N",
                    "N",
                    "N",
                    "N",
                    "N",
                    "N",
                    "N",
                    "N",
                    "N",
                    "N",
                    "N",
                    "N",
                    "N",
                    "N",
                    "N",
                    "N",
                    "N",
                    "N",
                    "N",
                    "N",
                    "N",
                    "N",
                    "N"
                ],
                "AESCONG": [
                    "N",
                    "N",
                    "N",
                    "N",
                    "N",
                    "N",
                    "N",
                    "N",
                    "N",
                    "N",
                    "N",
                    "N",
                    "N",
                    "N",
                    "N",
                    "N",
                    "N",
                    "N",
                    "N",
                    "N",
                    "N",
                    "N",
                    "N",
                    "N",
                    "N",
                    "N",
                    "N",
                    "N",
                    "N",
                    "N",
                    "N",
                    "N",
                    "N",
                    "N",
                    "N",
                    "N",
                    "N",
                    "N",
                    "N",
                    "N",
                    "N",
                    "N",
                    "N",
                    "N",
                    "N",
                    "N",
                    "N",
                    "N",
                    "N",
                    "N",
                    "N",
                    "N",
                    "N",
                    "N",
                    "N",
                    "N",
                    "N",
                    "N",
                    "N",
                    "N",
                    "N",
                    "N",
                    "N",
                    "N",
                    "N",
                    "N",
                    "N",
                    "N",
                    "N",
                    "N",
                    "N",
                    "N",
                    "N",
                    "N"
                ],
                "AESDISAB": [
                    "N",
                    "N",
                    "N",
                    "N",
                    "N",
                    "N",
                    "N",
                    "N",
                    "N",
                    "N",
                    "N",
                    "N",
                    "N",
                    "N",
                    "N",
                    "N",
                    "N",
                    "N",
                    "N",
                    "N",
                    "N",
                    "N",
                    "N",
                    "N",
                    "N",
                    "N",
                    "N",
                    "N",
                    "N",
                    "N",
                    "N",
                    "N",
                    "N",
                    "N",
                    "N",
                    "N",
                    "N",
                    "N",
                    "N",
                    "N",
                    "N",
                    "N",
                    "N",
                    "N",
                    "N",
                    "N",
                    "N",
                    "N",
                    "N",
                    "N",
                    "N",
                    "N",
                    "N",
                    "N",
                    "N",
                    "N",
                    "N",
                    "N",
                    "N",
                    "N",
                    "N",
                    "N",
                    "N",
                    "N",
                    "N",
                    "N",
                    "N",
                    "N",
                    "N",
                    "N",
                    "N",
                    "N",
                    "N",
                    "N"
                ],
                "AESDTH": [
                    "N",
                    "N",
                    "N",
                    "N",
                    "N",
                    "N",
                    "N",
                    "N",
                    "N",
                    "N",
                    "Y",
                    "N",
                    "N",
                    "N",
                    "N",
                    "N",
                    "N",
                    "N",
                    "N",
                    "N",
                    "N",
                    "N",
                    "N",
                    "N",
                    "N",
                    "N",
                    "N",
                    "N",
                    "N",
                    "N",
                    "N",
                    "N",
                    "N",
                    "N",
                    "N",
                    "N",
                    "N",
                    "N",
                    "N",
                    "N",
                    "Y",
                    "N",
                    "N",
                    "N",
                    "N",
                    "N",
                    "N",
                    "N",
                    "N",
                    "Y",
                    "N",
                    "N",
                    "N",
                    "N",
                    "N",
                    "N",
                    "N",
                    "N",
                    "N",
                    "N",
                    "N",
                    "N",
                    "N",
                    "N",
                    "N",
                    "N",
                    "N",
                    "N",
                    "N",
                    "N",
                    "N",
                    "N",
                    "N",
                    "N"
                ],
                "AESHOSP": [
                    "N",
                    "N",
                    "N",
                    "N",
                    "N",
                    "N",
                    "N",
                    "N",
                    "N",
                    "N",
                    "N",
                    "N",
                    "N",
                    "N",
                    "N",
                    "N",
                    "N",
                    "N",
                    "N",
                    "N",
                    "N",
                    "N",
                    "N",
                    "N",
                    "N",
                    "N",
                    "N",
                    "N",
                    "N",
                    "N",
                    "N",
                    "N",
                    "N",
                    "N",
                    "N",
                    "N",
                    "N",
                    "N",
                    "N",
                    "N",
                    "N",
                    "N",
                    "N",
                    "N",
                    "N",
                    "N",
                    "N",
                    "N",
                    "N",
                    "Y",
                    "N",
                    "N",
                    "N",
                    "N",
                    "N",
                    "N",
                    "N",
                    "N",
                    "N",
                    "N",
                    "N",
                    "N",
                    "N",
                    "N",
                    "N",
                    "N",
                    "N",
                    "N",
                    "N",
                    "N",
                    "N",
                    "N",
                    "N",
                    "N"
                ],
                "AESLIFE": [
                    "N",
                    "N",
                    "N",
                    "N",
                    "N",
                    "N",
                    "N",
                    "N",
                    "N",
                    "N",
                    "Y",
                    "N",
                    "N",
                    "N",
                    "N",
                    "N",
                    "N",
                    "N",
                    "N",
                    "N",
                    "N",
                    "N",
                    "N",
                    "N",
                    "N",
                    "N",
                    "N",
                    "N",
                    "N",
                    "N",
                    "N",
                    "N",
                    "N",
                    "N",
                    "N",
                    "N",
                    "N",
                    "N",
                    "N",
                    "N",
                    "N",
                    "N",
                    "N",
                    "N",
                    "N",
                    "N",
                    "N",
                    "N",
                    "N",
                    "Y",
                    "N",
                    "N",
                    "N",
                    "N",
                    "N",
                    "N",
                    "N",
                    "N",
                    "N",
                    "N",
                    "N",
                    "N",
                    "N",
                    "N",
                    "N",
                    "N",
                    "N",
                    "N",
                    "N",
                    "N",
                    "N",
                    "N",
                    "N",
                    "N"
                ],
                "AESOD": [
                    "N",
                    "N",
                    "N",
                    "N",
                    "N",
                    "N",
                    "N",
                    "N",
                    "N",
                    "N",
                    "N",
                    "N",
                    "N",
                    "N",
                    "N",
                    "N",
                    "N",
                    "N",
                    "N",
                    "N",
                    "N",
                    "N",
                    "N",
                    "N",
                    "N",
                    "N",
                    "N",
                    "N",
                    "N",
                    "N",
                    "N",
                    "N",
                    "N",
                    "N",
                    "N",
                    "N",
                    "N",
                    "N",
                    "N",
                    "N",
                    "N",
                    "N",
                    "N",
                    "N",
                    "N",
                    "N",
                    "N",
                    "N",
                    "N",
                    "N",
                    "N",
                    "N",
                    "N",
                    "N",
                    "N",
                    "N",
                    "N",
                    "N",
                    "N",
                    "N",
                    "N",
                    "N",
                    "N",
                    "N",
                    "N",
                    "N",
                    "N",
                    "N",
                    "N",
                    "N",
                    "N",
                    "N",
                    "N",
                    "N"
                ],
                "EPOCH": [
                    "TREATMENT",
                    "TREATMENT",
                    "TREATMENT",
                    "TREATMENT",
                    "TREATMENT",
                    "TREATMENT",
                    "TREATMENT",
                    "TREATMENT",
                    "TREATMENT",
                    "TREATMENT",
                    "TREATMENT",
                    "TREATMENT",
                    "TREATMENT",
                    "TREATMENT",
                    "TREATMENT",
                    "TREATMENT",
                    "TREATMENT",
                    "TREATMENT",
                    "TREATMENT",
                    "TREATMENT",
                    "TREATMENT",
                    "TREATMENT",
                    "TREATMENT",
                    "TREATMENT",
                    "TREATMENT",
                    "TREATMENT",
                    "TREATMENT",
                    "TREATMENT",
                    "TREATMENT",
                    "TREATMENT",
                    "TREATMENT",
                    "TREATMENT",
                    "TREATMENT",
                    "TREATMENT",
                    "TREATMENT",
                    "TREATMENT",
                    "TREATMENT",
                    "TREATMENT",
                    "TREATMENT",
                    "TREATMENT",
                    "TREATMENT",
                    "TREATMENT",
                    "TREATMENT",
                    "TREATMENT",
                    "TREATMENT",
                    "TREATMENT",
                    "TREATMENT",
                    "TREATMENT",
                    "TREATMENT",
                    "TREATMENT",
                    "TREATMENT",
                    "TREATMENT",
                    "TREATMENT",
                    "TREATMENT",
                    "TREATMENT",
                    "TREATMENT",
                    "TREATMENT",
                    "TREATMENT",
                    "TREATMENT",
                    "TREATMENT",
                    "TREATMENT",
                    "TREATMENT",
                    "TREATMENT",
                    "TREATMENT",
                    "TREATMENT",
                    "TREATMENT",
                    "TREATMENT",
                    "TREATMENT",
                    "TREATMENT",
                    "TREATMENT",
                    "TREATMENT",
                    "TREATMENT",
                    "TREATMENT",
                    "TREATMENT"
                ],
                "AESTDTC": [
                    "2012-12-02",
                    "2013-01-14",
                    "2012-11-16",
                    "2012-11-21",
                    "2012-11-21",
                    "2012-11-22",
                    "2012-11-29",
                    "2012-12-09",
                    "2013-01-11",
                    "2013-01-11",
                    "2013-01-14",
                    "2013-08-30",
                    "2013-08-30",
                    "2013-08-31",
                    "2013-09-01",
                    "2013-09-02",
                    "2013-09-02",
                    "2013-09-02",
                    "2013-09-02",
                    "2013-09-02",
                    "2013-09-04",
                    "2013-09-05",
                    "2013-09-15",
                    "2013-09-30",
                    "2013-10-15",
                    "2013-10-23",
                    "2013-10-23",
                    "2013-10-24",
                    "2013-10-24",
                    "2013-10-24",
                    "2013-02-07",
                    "2013-03-23",
                    "2013-03-23",
                    "2013-04-12",
                    "2013-06-24",
                    "2013-06-24",
                    "2013-07-17",
                    "2013-01-19",
                    "2013-01-19",
                    "2013-02-08",
                    "2014-10-31",
                    "2013-01-19",
                    "2013-02-04",
                    "2013-02-16",
                    "2013-03-16",
                    "2012-12-18",
                    "2013-01-12",
                    "2013-02-02",
                    "2013-04-10",
                    "2013-08-02",
                    "2013-04-16",
                    "2013-04-27",
                    "2013-04-11",
                    "2013-04-28",
                    "2013-04-29",
                    "2013-05-27",
                    "2013-05-28",
                    "2013-05-30",
                    "2013-06-01",
                    "2013-10-09",
                    "2013-10-09",
                    "2013-10-15",
                    "2013-11-15",
                    "2013-12-29",
                    "2012-12-18",
                    "2012-12-26",
                    "2013-01-01",
                    "2013-01-03",
                    "2013-01-05",
                    "2013-01-16",
                    "2013-01-21",
                    "2013-01-27",
                    "2013-02-04",
                    "2013-02-04"
                ],
                "AEENDTC": [
                    "",
                    "",
                    "",
                    "",
                    "2012-11-21",
                    "",
                    "",
                    "",
                    "",
                    "",
                    "2013-01-14",
                    "",
                    "",
                    "",
                    "",
                    "",
                    "",
                    "",
                    "",
                    "2013-09-03",
                    "",
                    "2013-10-08",
                    "",
                    "",
                    "",
                    "",
                    "",
                    "",
                    "",
                    "",
                    "2013-02-07",
                    "",
                    "2013-03-26",
                    "",
                    "2013-06-24",
                    "2013-06-24",
                    "2013-07-26",
                    "",
                    "",
                    "2013-02-08",
                    "2014-10-31",
                    "2013-01-19",
                    "2013-02-08",
                    "",
                    "2013-03-16",
                    "2012-12-18",
                    "2013-01-12",
                    "2013-02-02",
                    "2013-06-05",
                    "2013-08-02",
                    "2013-05-02",
                    "",
                    "",
                    "2013-05-11",
                    "2013-05-15",
                    "2013-05-31",
                    "2013-06-01",
                    "",
                    "",
                    "2013-10-09",
                    "2013-11-15",
                    "2013-11-02",
                    "2013-11-15",
                    "2014-02-19",
                    "2012-12-18",
                    "2012-12-26",
                    "2013-01-19",
                    "2013-01-09",
                    "2013-01-05",
                    "2013-01-16",
                    "2013-01-24",
                    "2013-01-28",
                    "2013-02-25",
                    "2013-02-25"
                ],
                "AESTDY": [
                    3,
                    46,
                    2,
                    7,
                    7,
                    8,
                    15,
                    25,
                    58,
                    58,
                    61,
                    2,
                    2,
                    3,
                    4,
                    5,
                    5,
                    5,
                    5,
                    5,
                    7,
                    8,
                    18,
                    33,
                    48,
                    56,
                    56,
                    57,
                    57,
                    57,
                    4,
                    48,
                    48,
                    68,
                    141,
                    141,
                    164,
                    15,
                    15,
                    35,
                    174,
                    90,
                    106,
                    118,
                    146,
                    12,
                    37,
                    58,
                    125,
                    12,
                    14,
                    25,
                    9,
                    26,
                    27,
                    55,
                    56,
                    58,
                    60,
                    19,
                    19,
                    25,
                    56,
                    100,
                    2,
                    10,
                    16,
                    18,
                    20,
                    31,
                    36,
                    42,
                    50,
                    50
                ],
                "AEENDY": [
                    null,
                    null,
                    null,
                    null,
                    7,
                    null,
                    null,
                    null,
                    null,
                    null,
                    61,
                    null,
                    null,
                    null,
                    null,
                    null,
                    null,
                    null,
                    null,
                    6,
                    null,
                    41,
                    null,
                    null,
                    null,
                    null,
                    null,
                    null,
                    null,
                    null,
                    4,
                    null,
                    51,
                    null,
                    141,
                    141,
                    173,
                    null,
                    null,
                    35,
                    174,
                    90,
                    110,
                    null,
                    146,
                    12,
                    37,
                    58,
                    181,
                    12,
                    30,
                    null,
                    null,
                    39,
                    43,
                    59,
                    60,
                    null,
                    null,
                    19,
                    56,
                    43,
                    56,
                    152,
                    2,
                    10,
                    34,
                    24,
                    20,
                    31,
                    39,
                    43,
                    71,
                    71
                ],
                "AEENRTPT": [
                    "ONGOING",
                    "ONGOING",
                    "ONGOING",
                    "ONGOING",
                    "",
                    "ONGOING",
                    "ONGOING",
                    "ONGOING",
                    "ONGOING",
                    "ONGOING",
                    "",
                    "ONGOING",
                    "ONGOING",
                    "ONGOING",
                    "ONGOING",
                    "ONGOING",
                    "ONGOING",
                    "ONGOING",
                    "ONGOING",
                    "",
                    "ONGOING",
                    "",
                    "ONGOING",
                    "ONGOING",
                    "ONGOING",
                    "ONGOING",
                    "ONGOING",
                    "ONGOING",
                    "ONGOING",
                    "ONGOING",
                    "",
                    "ONGOING",
                    "",
                    "ONGOING",
                    "",
                    "",
                    "",
                    "ONGOING",
                    "ONGOING",
                    "",
                    "",
                    "",
                    "",
                    "ONGOING",
                    "",
                    "",
                    "",
                    "",
                    "",
                    "",
                    "",
                    "ONGOING",
                    "ONGOING",
                    "",
                    "",
                    "",
                    "",
                    "ONGOING",
                    "ONGOING",
                    "",
                    "",
                    "",
                    "",
                    "",
                    "",
                    "",
                    "",
                    "",
                    "",
                    "",
                    "",
                    "",
                    "",
                    ""
                ],
                "AEENTPT": [
                    "2013-05-20",
                    "2013-05-20",
                    "2013-01-14",
                    "2013-01-14",
                    "",
                    "2013-01-14",
                    "2013-01-14",
                    "2013-01-14",
                    "2013-01-14",
                    "2013-01-14",
                    "",
                    "2013-02-13",
                    "2013-02-13",
                    "2013-02-13",
                    "2013-02-13",
                    "2013-02-13",
                    "2013-02-13",
                    "2013-02-13",
                    "2013-02-13",
                    "",
                    "2013-02-13",
                    "",
                    "2013-02-13",
                    "2013-02-13",
                    "2013-02-13",
                    "2013-02-13",
                    "2013-02-13",
                    "2013-02-13",
                    "2013-02-13",
                    "2013-02-13",
                    "",
                    "2013-08-06",
                    "",
                    "2013-08-06",
                    "",
                    "",
                    "",
                    "2013-06-20",
                    "2013-06-20",
                    "",
                    "",
                    "",
                    "",
                    "2013-04-28",
                    "",
                    "",
                    "",
                    "",
                    "",
                    "",
                    "",
                    "2013-09-18",
                    "2013-09-22",
                    "",
                    "",
                    "",
                    "",
                    "2013-09-22",
                    "2013-09-22",
                    "",
                    "",
                    "",
                    "",
                    "",
                    "",
                    "",
                    "",
                    "",
                    "",
                    "",
                    "",
                    "",
                    "",
                    ""
                ]
            }
        },
        {
            "filename": "ec.xpt",
            "label": "Exposure as Collected",
            "domain": "EC",
            "variables": [
                {
                    "name": "STUDYID",
                    "label": "Study Identifier",
                    "type": "char",
                    "length": 12
                },
                {
                    "name": "DOMAIN",
                    "label": "Domain Abbreviation",
                    "type": "char",
                    "length": 2
                },
                {
                    "name": "USUBJID",
                    "label": "Unique Subject Identifier",
                    "type": "char",
                    "length": 8
                },
                {
                    "name": "SPDEVID",
                    "label": "Sponsor Device Identifier",
                    "type": "char",
                    "length": 200
                },
                {
                    "name": "ECSEQ",
                    "label": "Sequence Number",
                    "type": "num",
                    "length": 8
                },
                {
                    "name": "ECTRT",
                    "label": "Name of Treatment",
                    "type": "char",
                    "length": 10
                },
                {
                    "name": "ECPRESP",
                    "label": "Pre-Specified",
                    "type": "char",
                    "length": 1
                },
                {
                    "name": "ECOCCUR",
                    "label": "Occurrence",
                    "type": "char",
                    "length": 1
                },
                {
                    "name": "ECDOSE",
                    "label": "Dose",
                    "type": "num",
                    "length": 8
                },
                {
                    "name": "ECDOSU",
                    "label": "Dose Units",
                    "type": "char",
                    "length": 2
                },
                {
                    "name": "ECDOSFRM",
                    "label": "Dose Form",
                    "type": "char",
                    "length": 9
                },
                {
                    "name": "ECDOSFRQ",
                    "label": "Dosing Frequency per Interval",
                    "type": "char",
                    "length": 2
                },
                {
                    "name": "ECROUTE",
                    "label": "Route of Administration",
                    "type": "char",
                    "length": 12
                },
                {
                    "name": "ECLOT",
                    "label": "Lot Number",
                    "type": "char",
                    "length": 200
                },
                {
                    "name": "ECPSTRG",
                    "label": "Pharmaceutical Strength",
                    "type": "num",
                    "length": 8
                },
                {
                    "name": "ECPSTRGU",
                    "label": "Pharmaceutical Strength Units",
                    "type": "char",
                    "length": 3
                },
                {
                    "name": "EPOCH",
                    "label": "Epoch",
                    "type": "char",
                    "length": 9
                },
                {
                    "name": "ECSTDTC",
                    "label": "Start Date/Time of Treatment",
                    "type": "char",
                    "length": 10
                },
                {
                    "name": "ECENDTC",
                    "label": "End Date/Time of Treatment",
                    "type": "char",
                    "length": 10
                },
                {
                    "name": "ECSTDY",
                    "label": "Study Day of Start of Treatment",
                    "type": "num",
                    "length": 8
                },
                {
                    "name": "ECENDY",
                    "label": "Study Day of End of Treatment",
                    "type": "num",
                    "length": 8
                }
            ],
            "records": {
                "STUDYID": [
                    "CDISCPILOT01",
                    "CDISCPILOT01",
                    "CDISCPILOT01",
                    "CDISCPILOT01",
                    "CDISCPILOT01",
                    "CDISCPILOT01",
                    "CDISCPILOT01",
                    "CDISCPILOT01",
                    "CDISCPILOT01",
                    "CDISCPILOT01",
                    "CDISCPILOT01",
                    "CDISCPILOT01",
                    "CDISCPILOT01",
                    "CDISCPILOT01",
                    "CDISCPILOT01",
                    "CDISCPILOT01",
                    "CDISCPILOT01",
                    "CDISCPILOT01",
                    "CDISCPILOT01",
                    "CDISCPILOT01",
                    "CDISCPILOT01",
                    "CDISCPILOT01",
                    "CDISCPILOT01",
                    "CDISCPILOT01",
                    "CDISCPILOT01",
                    "CDISCPILOT01",
                    "CDISCPILOT01",
                    "CDISCPILOT01",
                    "CDISCPILOT01",
                    "CDISCPILOT01",
                    "CDISCPILOT01",
                    "CDISCPILOT01",
                    "CDISCPILOT01",
                    "CDISCPILOT01",
                    "CDISCPILOT01",
                    "CDISCPILOT01",
                    "CDISCPILOT01",
                    "CDISCPILOT01",
                    "CDISCPILOT01",
                    "CDISCPILOT01",
                    "CDISCPILOT01",
                    "CDISCPILOT01",
                    "CDISCPILOT01",
                    "CDISCPILOT01",
                    "CDISCPILOT01",
                    "CDISCPILOT01",
                    "CDISCPILOT01",
                    "CDISCPILOT01",
                    "CDISCPILOT01",
                    "CDISCPILOT01",
                    "CDISCPILOT01",
                    "CDISCPILOT01",
                    "CDISCPILOT01",
                    "CDISCPILOT01",
                    "CDISCPILOT01",
                    "CDISCPILOT01",
                    "CDISCPILOT01",
                    "CDISCPILOT01",
                    "CDISCPILOT01",
                    "CDISCPILOT01",
                    "CDISCPILOT01",
                    "CDISCPILOT01",
                    "CDISCPILOT01",
                    "CDISCPILOT01",
                    "CDISCPILOT01",
                    "CDISCPILOT01",
                    "CDISCPILOT01",
                    "CDISCPILOT01",
                    "CDISCPILOT01",
                    "CDISCPILOT01",
                    "CDISCPILOT01",
                    "CDISCPILOT01",
                    "CDISCPILOT01",
                    "CDISCPILOT01",
                    "CDISCPILOT01",
                    "CDISCPILOT01",
                    "CDISCPILOT01",
                    "CDISCPILOT01",
                    "CDISCPILOT01",
                    "CDISCPILOT01",
                    "CDISCPILOT01",
                    "CDISCPILOT01",
                    "CDISCPILOT01",
                    "CDISCPILOT01",
                    "CDISCPILOT01",
                    "CDISCPILOT01",
                    "CDISCPILOT01",
                    "CDISCPILOT01",
                    "CDISCPILOT01",
                    "CDISCPILOT01",
                    "CDISCPILOT01",
                    "CDISCPILOT01",
                    "CDISCPILOT01",
                    "CDISCPILOT01",
                    "CDISCPILOT01",
                    "CDISCPILOT01",
                    "CDISCPILOT01",
                    "CDISCPILOT01",
                    "CDISCPILOT01",
                    "CDISCPILOT01",
                    "CDISCPILOT01",
                    "CDISCPILOT01",
                    "CDISCPILOT01",
                    "CDISCPILOT01",
                    "CDISCPILOT01",
                    "CDISCPILOT01",
                    "CDISCPILOT01",
                    "CDISCPILOT01",
                    "CDISCPILOT01",
                    "CDISCPILOT01",
                    "CDISCPILOT01",
                    "CDISCPILOT01",
                    "CDISCPILOT01",
                    "CDISCPILOT01",
                    "CDISCPILOT01",
                    "CDISCPILOT01",
                    "CDISCPILOT01",
                    "CDISCPILOT01",
                    "CDISCPILOT01",
                    "CDISCPILOT01",
                    "CDISCPILOT01",
                    "CDISCPILOT01",
                    "CDISCPILOT01",
                    "CDISCPILOT01",
                    "CDISCPILOT01",
                    "CDISCPILOT01",
                    "CDISCPILOT01",
                    "CDISCPILOT01",
                    "CDISCPILOT01",
                    "CDISCPILOT01",
                    "CDISCPILOT01",
                    "CDISCPILOT01",
                    "CDISCPILOT01",
                    "CDISCPILOT01",
                    "CDISCPILOT01",
                    "CDISCPILOT01",
                    "CDISCPILOT01",
                    "CDISCPILOT01",
                    "CDISCPILOT01",
                    "CDISCPILOT01",
                    "CDISCPILOT01",
                    "CDISCPILOT01",
                    "CDISCPILOT01",
                    "CDISCPILOT01",
                    "CDISCPILOT01",
                    "CDISCPILOT01",
                    "CDISCPILOT01",
                    "CDISCPILOT01",
                    "CDISCPILOT01",
                    "CDISCPILOT01",
                    "CDISCPILOT01",
                    "CDISCPILOT01",
                    "CDISCPILOT01",
                    "CDISCPILOT01",
                    "CDISCPILOT01",
                    "CDISCPILOT01",
                    "CDISCPILOT01",
                    "CDISCPILOT01",
                    "CDISCPILOT01",
                    "CDISCPILOT01",
                    "CDISCPILOT01",
                    "CDISCPILOT01",
                    "CDISCPILOT01",
                    "CDISCPILOT01",
                    "CDISCPILOT01",
                    "CDISCPILOT01",
                    "CDISCPILOT01",
                    "CDISCPILOT01",
                    "CDISCPILOT01",
                    "CDISCPILOT01",
                    "CDISCPILOT01",
                    "CDISCPILOT01",
                    "CDISCPILOT01",
                    "CDISCPILOT01",
                    "CDISCPILOT01",
                    "CDISCPILOT01",
                    "CDISCPILOT01",
                    "CDISCPILOT01",
                    "CDISCPILOT01",
                    "CDISCPILOT01",
                    "CDISCPILOT01",
                    "CDISCPILOT01",
                    "CDISCPILOT01",
                    "CDISCPILOT01",
                    "CDISCPILOT01",
                    "CDISCPILOT01",
                    "CDISCPILOT01",
                    "CDISCPILOT01",
                    "CDISCPILOT01",
                    "CDISCPILOT01",
                    "CDISCPILOT01",
                    "CDISCPILOT01",
                    "CDISCPILOT01",
                    "CDISCPILOT01",
                    "CDISCPILOT01",
                    "CDISCPILOT01",
                    "CDISCPILOT01",
                    "CDISCPILOT01",
                    "CDISCPILOT01",
                    "CDISCPILOT01",
                    "CDISCPILOT01",
                    "CDISCPILOT01",
                    "CDISCPILOT01",
                    "CDISCPILOT01",
                    "CDISCPILOT01",
                    "CDISCPILOT01",
                    "CDISCPILOT01",
                    "CDISCPILOT01",
                    "CDISCPILOT01",
                    "CDISCPILOT01",
                    "CDISCPILOT01",
                    "CDISCPILOT01",
                    "CDISCPILOT01",
                    "CDISCPILOT01",
                    "CDISCPILOT01",
                    "CDISCPILOT01",
                    "CDISCPILOT01",
                    "CDISCPILOT01",
                    "CDISCPILOT01",
                    "CDISCPILOT01",
                    "CDISCPILOT01",
                    "CDISCPILOT01",
                    "CDISCPILOT01",
                    "CDISCPILOT01",
                    "CDISCPILOT01",
                    "CDISCPILOT01",
                    "CDISCPILOT01",
                    "CDISCPILOT01",
                    "CDISCPILOT01",
                    "CDISCPILOT01",
                    "CDISCPILOT01",
                    "CDISCPILOT01",
                    "CDISCPILOT01",
                    "CDISCPILOT01",
                    "CDISCPILOT01",
                    "CDISCPILOT01",
                    "CDISCPILOT01",
                    "CDISCPILOT01",
                    "CDISCPILOT01",
                    "CDISCPILOT01",
                    "CDISCPILOT01",
                    "CDISCPILOT01",
                    "CDISCPILOT01",
                    "CDISCPILOT01",
                    "CDISCPILOT01",
                    "CDISCPILOT01",
                    "CDISCPILOT01",
                    "CDISCPILOT01",
                    "CDISCPILOT01",
                    "CDISCPILOT01",
                    "CDISCPILOT01",
                    "CDISCPILOT01",
                    "CDISCPILOT01",
                    "CDISCPILOT01",
                    "CDISCPILOT01",
                    "CDISCPILOT01",
                    "CDISCPILOT01",
                    "CDISCPILOT01",
                    "CDISCPILOT01",
                    "CDISCPILOT01",
                    "CDISCPILOT01",
                    "CDISCPILOT01",
                    "CDISCPILOT01",
                    "CDISCPILOT01",
                    "CDISCPILOT01",
                    "CDISCPILOT01",
                    "CDISCPILOT01",
                    "CDISCPILOT01",
                    "CDISCPILOT01",
                    "CDISCPILOT01",
                    "CDISCPILOT01",
                    "CDISCPILOT01",
                    "CDISCPILOT01",
                    "CDISCPILOT01",
                    "CDISCPILOT01",
                    "CDISCPILOT01",
                    "CDISCPILOT01",
                    "CDISCPILOT01",
                    "CDISCPILOT01",
                    "CDISCPILOT01",
                    "CDISCPILOT01",
                    "CDISCPILOT01",
                    "CDISCPILOT01",
                    "CDISCPILOT01",
                    "CDISCPILOT01",
                    "CDISCPILOT01",
                    "CDISCPILOT01",
                    "CDISCPILOT01",
                    "CDISCPILOT01",
                    "CDISCPILOT01",
                    "CDISCPILOT01",
                    "CDISCPILOT01",
                    "CDISCPILOT01",
                    "CDISCPILOT01",
                    "CDISCPILOT01",
                    "CDISCPILOT01",
                    "CDISCPILOT01",
                    "CDISCPILOT01",
                    "CDISCPILOT01",
                    "CDISCPILOT01",
                    "CDISCPILOT01",
                    "CDISCPILOT01",
                    "CDISCPILOT01",
                    "CDISCPILOT01",
                    "CDISCPILOT01",
                    "CDISCPILOT01",
                    "CDISCPILOT01",
                    "CDISCPILOT01",
                    "CDISCPILOT01",
                    "CDISCPILOT01",
                    "CDISCPILOT01",
                    "CDISCPILOT01",
                    "CDISCPILOT01",
                    "CDISCPILOT01",
                    "CDISCPILOT01",
                    "CDISCPILOT01",
                    "CDISCPILOT01",
                    "CDISCPILOT01",
                    "CDISCPILOT01",
                    "CDISCPILOT01",
                    "CDISCPILOT01",
                    "CDISCPILOT01",
                    "CDISCPILOT01",
                    "CDISCPILOT01",
                    "CDISCPILOT01",
                    "CDISCPILOT01",
                    "CDISCPILOT01",
                    "CDISCPILOT01",
                    "CDISCPILOT01",
                    "CDISCPILOT01",
                    "CDISCPILOT01",
                    "CDISCPILOT01",
                    "CDISCPILOT01",
                    "CDISCPILOT01",
                    "CDISCPILOT01",
                    "CDISCPILOT01",
                    "CDISCPILOT01",
                    "CDISCPILOT01",
                    "CDISCPILOT01",
                    "CDISCPILOT01",
                    "CDISCPILOT01",
                    "CDISCPILOT01",
                    "CDISCPILOT01",
                    "CDISCPILOT01",
                    "CDISCPILOT01",
                    "CDISCPILOT01",
                    "CDISCPILOT01",
                    "CDISCPILOT01",
                    "CDISCPILOT01",
                    "CDISCPILOT01",
                    "CDISCPILOT01",
                    "CDISCPILOT01",
                    "CDISCPILOT01",
                    "CDISCPILOT01",
                    "CDISCPILOT01",
                    "CDISCPILOT01",
                    "CDISCPILOT01",
                    "CDISCPILOT01",
                    "CDISCPILOT01",
                    "CDISCPILOT01",
                    "CDISCPILOT01",
                    "CDISCPILOT01",
                    "CDISCPILOT01",
                    "CDISCPILOT01",
                    "CDISCPILOT01",
                    "CDISCPILOT01",
                    "CDISCPILOT01",
                    "CDISCPILOT01",
                    "CDISCPILOT01",
                    "CDISCPILOT01",
                    "CDISCPILOT01",
                    "CDISCPILOT01",
                    "CDISCPILOT01",
                    "CDISCPILOT01",
                    "CDISCPILOT01",
                    "CDISCPILOT01",
                    "CDISCPILOT01",
                    "CDISCPILOT01",
                    "CDISCPILOT01",
                    "CDISCPILOT01",
                    "CDISCPILOT01",
                    "CDISCPILOT01",
                    "CDISCPILOT01",
                    "CDISCPILOT01",
                    "CDISCPILOT01",
                    "CDISCPILOT01",
                    "CDISCPILOT01",
                    "CDISCPILOT01",
                    "CDISCPILOT01",
                    "CDISCPILOT01",
                    "CDISCPILOT01",
                    "CDISCPILOT01",
                    "CDISCPILOT01",
                    "CDISCPILOT01",
                    "CDISCPILOT01",
                    "CDISCPILOT01",
                    "CDISCPILOT01",
                    "CDISCPILOT01",
                    "CDISCPILOT01",
                    "CDISCPILOT01",
                    "CDISCPILOT01",
                    "CDISCPILOT01",
                    "CDISCPILOT01",
                    "CDISCPILOT01",
                    "CDISCPILOT01",
                    "CDISCPILOT01",
                    "CDISCPILOT01",
                    "CDISCPILOT01",
                    "CDISCPILOT01",
                    "CDISCPILOT01",
                    "CDISCPILOT01",
                    "CDISCPILOT01",
                    "CDISCPILOT01",
                    "CDISCPILOT01",
                    "CDISCPILOT01",
                    "CDISCPILOT01",
                    "CDISCPILOT01",
                    "CDISCPILOT01",
                    "CDISCPILOT01",
                    "CDISCPILOT01",
                    "CDISCPILOT01",
                    "CDISCPILOT01",
                    "CDISCPILOT01",
                    "CDISCPILOT01",
                    "CDISCPILOT01",
                    "CDISCPILOT01",
                    "CDISCPILOT01",
                    "CDISCPILOT01",
                    "CDISCPILOT01",
                    "CDISCPILOT01",
                    "CDISCPILOT01",
                    "CDISCPILOT01",
                    "CDISCPILOT01",
                    "CDISCPILOT01",
                    "CDISCPILOT01",
                    "CDISCPILOT01",
                    "CDISCPILOT01",
                    "CDISCPILOT01",
                    "CDISCPILOT01",
                    "CDISCPILOT01",
                    "CDISCPILOT01",
                    "CDISCPILOT01",
                    "CDISCPILOT01",
                    "CDISCPILOT01",
                    "CDISCPILOT01",
                    "CDISCPILOT01",
                    "CDISCPILOT01",
                    "CDISCPILOT01",
                    "CDISCPILOT01",
                    "CDISCPILOT01",
                    "CDISCPILOT01",
                    "CDISCPILOT01",
                    "CDISCPILOT01",
                    "CDISCPILOT01",
                    "CDISCPILOT01",
                    "CDISCPILOT01",
                    "CDISCPILOT01",
                    "CDISCPILOT01",
                    "CDISCPILOT01",
                    "CDISCPILOT01",
                    "CDISCPILOT01",
                    "CDISCPILOT01",
                    "CDISCPILOT01",
                    "CDISCPILOT01",
                    "CDISCPILOT01",
                    "CDISCPILOT01",
                    "CDISCPILOT01",
                    "CDISCPILOT01",
                    "CDISCPILOT01",
                    "CDISCPILOT01",
                    "CDISCPILOT01",
                    "CDISCPILOT01",
                    "CDISCPILOT01",
                    "CDISCPILOT01",
                    "CDISCPILOT01",
                    "CDISCPILOT01",
                    "CDISCPILOT01",
                    "CDISCPILOT01",
                    "CDISCPILOT01",
                    "CDISCPILOT01",
                    "CDISCPILOT01",
                    "CDISCPILOT01",
                    "CDISCPILOT01",
                    "CDISCPILOT01",
                    "CDISCPILOT01",
                    "CDISCPILOT01",
                    "CDISCPILOT01",
                    "CDISCPILOT01",
                    "CDISCPILOT01",
                    "CDISCPILOT01",
                    "CDISCPILOT01",
                    "CDISCPILOT01",
                    "CDISCPILOT01",
                    "CDISCPILOT01",
                    "CDISCPILOT01",
                    "CDISCPILOT01",
                    "CDISCPILOT01",
                    "CDISCPILOT01",
                    "CDISCPILOT01",
                    "CDISCPILOT01",
                    "CDISCPILOT01",
                    "CDISCPILOT01",
                    "CDISCPILOT01",
                    "CDISCPILOT01",
                    "CDISCPILOT01",
                    "CDISCPILOT01",
                    "CDISCPILOT01",
                    "CDISCPILOT01",
                    "CDISCPILOT01",
                    "CDISCPILOT01",
                    "CDISCPILOT01",
                    "CDISCPILOT01",
                    "CDISCPILOT01",
                    "CDISCPILOT01",
                    "CDISCPILOT01",
                    "CDISCPILOT01",
                    "CDISCPILOT01",
                    "CDISCPILOT01",
                    "CDISCPILOT01",
                    "CDISCPILOT01",
                    "CDISCPILOT01",
                    "CDISCPILOT01",
                    "CDISCPILOT01",
                    "CDISCPILOT01",
                    "CDISCPILOT01",
                    "CDISCPILOT01",
                    "CDISCPILOT01",
                    "CDISCPILOT01",
                    "CDISCPILOT01",
                    "CDISCPILOT01",
                    "CDISCPILOT01",
                    "CDISCPILOT01",
                    "CDISCPILOT01",
                    "CDISCPILOT01",
                    "CDISCPILOT01",
                    "CDISCPILOT01",
                    "CDISCPILOT01",
                    "CDISCPILOT01",
                    "CDISCPILOT01",
                    "CDISCPILOT01",
                    "CDISCPILOT01",
                    "CDISCPILOT01",
                    "CDISCPILOT01",
                    "CDISCPILOT01",
                    "CDISCPILOT01",
                    "CDISCPILOT01",
                    "CDISCPILOT01",
                    "CDISCPILOT01",
                    "CDISCPILOT01",
                    "CDISCPILOT01",
                    "CDISCPILOT01",
                    "CDISCPILOT01",
                    "CDISCPILOT01",
                    "CDISCPILOT01",
                    "CDISCPILOT01",
                    "CDISCPILOT01",
                    "CDISCPILOT01",
                    "CDISCPILOT01",
                    "CDISCPILOT01",
                    "CDISCPILOT01",
                    "CDISCPILOT01",
                    "CDISCPILOT01",
                    "CDISCPILOT01",
                    "CDISCPILOT01",
                    "CDISCPILOT01",
                    "CDISCPILOT01",
                    "CDISCPILOT01",
                    "CDISCPILOT01",
                    "CDISCPILOT01",
                    "CDISCPILOT01",
                    "CDISCPILOT01",
                    "CDISCPILOT01",
                    "CDISCPILOT01",
                    "CDISCPILOT01",
                    "CDISCPILOT01",
                    "CDISCPILOT01",
                    "CDISCPILOT01",
                    "CDISCPILOT01",
                    "CDISCPILOT01",
                    "CDISCPILOT01",
                    "CDISCPILOT01",
                    "CDISCPILOT01",
                    "CDISCPILOT01",
                    "CDISCPILOT01",
                    "CDISCPILOT01",
                    "CDISCPILOT01",
                    "CDISCPILOT01",
                    "CDISCPILOT01",
                    "CDISCPILOT01",
                    "CDISCPILOT01",
                    "CDISCPILOT01",
                    "CDISCPILOT01",
                    "CDISCPILOT01",
                    "CDISCPILOT01",
                    "CDISCPILOT01",
                    "CDISCPILOT01",
                    "CDISCPILOT01",
                    "CDISCPILOT01",
                    "CDISCPILOT01",
                    "CDISCPILOT01",
                    "CDISCPILOT01",
                    "CDISCPILOT01",
                    "CDISCPILOT01",
                    "CDISCPILOT01",
                    "CDISCPILOT01",
                    "CDISCPILOT01",
                    "CDISCPILOT01",
                    "CDISCPILOT01",
                    "CDISCPILOT01",
                    "CDISCPILOT01",
                    "CDISCPILOT01",
                    "CDISCPILOT01",
                    "CDISCPILOT01",
                    "CDISCPILOT01",
                    "CDISCPILOT01",
                    "CDISCPILOT01",
                    "CDISCPILOT01",
                    "CDISCPILOT01",
                    "CDISCPILOT01",
                    "CDISCPILOT01",
                    "CDISCPILOT01",
                    "CDISCPILOT01",
                    "CDISCPILOT01",
                    "CDISCPILOT01",
                    "CDISCPILOT01",
                    "CDISCPILOT01",
                    "CDISCPILOT01",
                    "CDISCPILOT01",
                    "CDISCPILOT01",
                    "CDISCPILOT01",
                    "CDISCPILOT01",
                    "CDISCPILOT01",
                    "CDISCPILOT01",
                    "CDISCPILOT01",
                    "CDISCPILOT01",
                    "CDISCPILOT01",
                    "CDISCPILOT01",
                    "CDISCPILOT01",
                    "CDISCPILOT01",
                    "CDISCPILOT01",
                    "CDISCPILOT01",
                    "CDISCPILOT01",
                    "CDISCPILOT01",
                    "CDISCPILOT01",
                    "CDISCPILOT01",
                    "CDISCPILOT01",
                    "CDISCPILOT01",
                    "CDISCPILOT01",
                    "CDISCPILOT01",
                    "CDISCPILOT01",
                    "CDISCPILOT01",
                    "CDISCPILOT01",
                    "CDISCPILOT01",
                    "CDISCPILOT01",
                    "CDISCPILOT01",
                    "CDISCPILOT01",
                    "CDISCPILOT01",
                    "CDISCPILOT01",
                    "CDISCPILOT01",
                    "CDISCPILOT01",
                    "CDISCPILOT01",
                    "CDISCPILOT01",
                    "CDISCPILOT01",
                    "CDISCPILOT01",
                    "CDISCPILOT01",
                    "CDISCPILOT01",
                    "CDISCPILOT01",
                    "CDISCPILOT01",
                    "CDISCPILOT01",
                    "CDISCPILOT01",
                    "CDISCPILOT01",
                    "CDISCPILOT01",
                    "CDISCPILOT01",
                    "CDISCPILOT01",
                    "CDISCPILOT01",
                    "CDISCPILOT01",
                    "CDISCPILOT01",
                    "CDISCPILOT01",
                    "CDISCPILOT01",
                    "CDISCPILOT01",
                    "CDISCPILOT01",
                    "CDISCPILOT01",
                    "CDISCPILOT01",
                    "CDISCPILOT01",
                    "CDISCPILOT01",
                    "CDISCPILOT01",
                    "CDISCPILOT01",
                    "CDISCPILOT01",
                    "CDISCPILOT01",
                    "CDISCPILOT01",
                    "CDISCPILOT01",
                    "CDISCPILOT01",
                    "CDISCPILOT01",
                    "CDISCPILOT01",
                    "CDISCPILOT01",
                    "CDISCPILOT01",
                    "CDISCPILOT01",
                    "CDISCPILOT01",
                    "CDISCPILOT01",
                    "CDISCPILOT01",
                    "CDISCPILOT01",
                    "CDISCPILOT01",
                    "CDISCPILOT01",
                    "CDISCPILOT01",
                    "CDISCPILOT01",
                    "CDISCPILOT01",
                    "CDISCPILOT01",
                    "CDISCPILOT01",
                    "CDISCPILOT01",
                    "CDISCPILOT01",
                    "CDISCPILOT01",
                    "CDISCPILOT01",
                    "CDISCPILOT01",
                    "CDISCPILOT01",
                    "CDISCPILOT01",
                    "CDISCPILOT01",
                    "CDISCPILOT01",
                    "CDISCPILOT01",
                    "CDISCPILOT01",
                    "CDISCPILOT01",
                    "CDISCPILOT01",
                    "CDISCPILOT01",
                    "CDISCPILOT01",
                    "CDISCPILOT01",
                    "CDISCPILOT01",
                    "CDISCPILOT01",
                    "CDISCPILOT01",
                    "CDISCPILOT01",
                    "CDISCPILOT01",
                    "CDISCPILOT01",
                    "CDISCPILOT01",
                    "CDISCPILOT01",
                    "CDISCPILOT01",
                    "CDISCPILOT01",
                    "CDISCPILOT01",
                    "CDISCPILOT01",
                    "CDISCPILOT01",
                    "CDISCPILOT01",
                    "CDISCPILOT01",
                    "CDISCPILOT01",
                    "CDISCPILOT01",
                    "CDISCPILOT01",
                    "CDISCPILOT01",
                    "CDISCPILOT01",
                    "CDISCPILOT01",
                    "CDISCPILOT01",
                    "CDISCPILOT01",
                    "CDISCPILOT01",
                    "CDISCPILOT01",
                    "CDISCPILOT01",
                    "CDISCPILOT01",
                    "CDISCPILOT01",
                    "CDISCPILOT01",
                    "CDISCPILOT01",
                    "CDISCPILOT01",
                    "CDISCPILOT01",
                    "CDISCPILOT01",
                    "CDISCPILOT01",
                    "CDISCPILOT01",
                    "CDISCPILOT01",
                    "CDISCPILOT01",
                    "CDISCPILOT01",
                    "CDISCPILOT01",
                    "CDISCPILOT01",
                    "CDISCPILOT01",
                    "CDISCPILOT01",
                    "CDISCPILOT01",
                    "CDISCPILOT01",
                    "CDISCPILOT01",
                    "CDISCPILOT01",
                    "CDISCPILOT01",
                    "CDISCPILOT01",
                    "CDISCPILOT01",
                    "CDISCPILOT01",
                    "CDISCPILOT01",
                    "CDISCPILOT01",
                    "CDISCPILOT01",
                    "CDISCPILOT01",
                    "CDISCPILOT01",
                    "CDISCPILOT01",
                    "CDISCPILOT01",
                    "CDISCPILOT01",
                    "CDISCPILOT01",
                    "CDISCPILOT01",
                    "CDISCPILOT01",
                    "CDISCPILOT01",
                    "CDISCPILOT01",
                    "CDISCPILOT01",
                    "CDISCPILOT01",
                    "CDISCPILOT01",
                    "CDISCPILOT01",
                    "CDISCPILOT01",
                    "CDISCPILOT01",
                    "CDISCPILOT01",
                    "CDISCPILOT01",
                    "CDISCPILOT01",
                    "CDISCPILOT01",
                    "CDISCPILOT01",
                    "CDISCPILOT01",
                    "CDISCPILOT01",
                    "CDISCPILOT01",
                    "CDISCPILOT01",
                    "CDISCPILOT01",
                    "CDISCPILOT01",
                    "CDISCPILOT01",
                    "CDISCPILOT01",
                    "CDISCPILOT01",
                    "CDISCPILOT01",
                    "CDISCPILOT01",
                    "CDISCPILOT01",
                    "CDISCPILOT01",
                    "CDISCPILOT01",
                    "CDISCPILOT01",
                    "CDISCPILOT01",
                    "CDISCPILOT01",
                    "CDISCPILOT01",
                    "CDISCPILOT01",
                    "CDISCPILOT01",
                    "CDISCPILOT01",
                    "CDISCPILOT01",
                    "CDISCPILOT01",
                    "CDISCPILOT01",
                    "CDISCPILOT01",
                    "CDISCPILOT01",
                    "CDISCPILOT01",
                    "CDISCPILOT01",
                    "CDISCPILOT01",
                    "CDISCPILOT01",
                    "CDISCPILOT01",
                    "CDISCPILOT01",
                    "CDISCPILOT01",
                    "CDISCPILOT01",
                    "CDISCPILOT01",
                    "CDISCPILOT01",
                    "CDISCPILOT01",
                    "CDISCPILOT01",
                    "CDISCPILOT01",
                    "CDISCPILOT01",
                    "CDISCPILOT01",
                    "CDISCPILOT01",
                    "CDISCPILOT01",
                    "CDISCPILOT01",
                    "CDISCPILOT01",
                    "CDISCPILOT01",
                    "CDISCPILOT01",
                    "CDISCPILOT01",
                    "CDISCPILOT01",
                    "CDISCPILOT01",
                    "CDISCPILOT01",
                    "CDISCPILOT01",
                    "CDISCPILOT01",
                    "CDISCPILOT01",
                    "CDISCPILOT01",
                    "CDISCPILOT01",
                    "CDISCPILOT01",
                    "CDISCPILOT01",
                    "CDISCPILOT01",
                    "CDISCPILOT01",
                    "CDISCPILOT01",
                    "CDISCPILOT01",
                    "CDISCPILOT01",
                    "CDISCPILOT01",
                    "CDISCPILOT01",
                    "CDISCPILOT01",
                    "CDISCPILOT01",
                    "CDISCPILOT01",
                    "CDISCPILOT01",
                    "CDISCPILOT01",
                    "CDISCPILOT01",
                    "CDISCPILOT01",
                    "CDISCPILOT01",
                    "CDISCPILOT01",
                    "CDISCPILOT01",
                    "CDISCPILOT01",
                    "CDISCPILOT01",
                    "CDISCPILOT01",
                    "CDISCPILOT01",
                    "CDISCPILOT01",
                    "CDISCPILOT01",
                    "CDISCPILOT01",
                    "CDISCPILOT01",
                    "CDISCPILOT01",
                    "CDISCPILOT01",
                    "CDISCPILOT01",
                    "CDISCPILOT01",
                    "CDISCPILOT01",
                    "CDISCPILOT01",
                    "CDISCPILOT01",
                    "CDISCPILOT01",
                    "CDISCPILOT01",
                    "CDISCPILOT01",
                    "CDISCPILOT01",
                    "CDISCPILOT01",
                    "CDISCPILOT01",
                    "CDISCPILOT01",
                    "CDISCPILOT01",
                    "CDISCPILOT01",
                    "CDISCPILOT01",
                    "CDISCPILOT01",
                    "CDISCPILOT01",
                    "CDISCPILOT01",
                    "CDISCPILOT01",
                    "CDISCPILOT01",
                    "CDISCPILOT01",
                    "CDISCPILOT01",
                    "CDISCPILOT01",
                    "CDISCPILOT01",
                    "CDISCPILOT01",
                    "CDISCPILOT01",
                    "CDISCPILOT01",
                    "CDISCPILOT01",
                    "CDISCPILOT01",
                    "CDISCPILOT01",
                    "CDISCPILOT01",
                    "CDISCPILOT01",
                    "CDISCPILOT01",
                    "CDISCPILOT01",
                    "CDISCPILOT01",
                    "CDISCPILOT01",
                    "CDISCPILOT01",
                    "CDISCPILOT01",
                    "CDISCPILOT01",
                    "CDISCPILOT01",
                    "CDISCPILOT01",
                    "CDISCPILOT01",
                    "CDISCPILOT01",
                    "CDISCPILOT01",
                    "CDISCPILOT01",
                    "CDISCPILOT01",
                    "CDISCPILOT01",
                    "CDISCPILOT01",
                    "CDISCPILOT01",
                    "CDISCPILOT01",
                    "CDISCPILOT01",
                    "CDISCPILOT01",
                    "CDISCPILOT01",
                    "CDISCPILOT01",
                    "CDISCPILOT01",
                    "CDISCPILOT01",
                    "CDISCPILOT01",
                    "CDISCPILOT01",
                    "CDISCPILOT01",
                    "CDISCPILOT01",
                    "CDISCPILOT01",
                    "CDISCPILOT01",
                    "CDISCPILOT01",
                    "CDISCPILOT01",
                    "CDISCPILOT01",
                    "CDISCPILOT01",
                    "CDISCPILOT01",
                    "CDISCPILOT01",
                    "CDISCPILOT01",
                    "CDISCPILOT01",
                    "CDISCPILOT01",
                    "CDISCPILOT01",
                    "CDISCPILOT01",
                    "CDISCPILOT01",
                    "CDISCPILOT01",
                    "CDISCPILOT01",
                    "CDISCPILOT01",
                    "CDISCPILOT01",
                    "CDISCPILOT01",
                    "CDISCPILOT01",
                    "CDISCPILOT01",
                    "CDISCPILOT01",
                    "CDISCPILOT01",
                    "CDISCPILOT01",
                    "CDISCPILOT01",
                    "CDISCPILOT01",
                    "CDISCPILOT01",
                    "CDISCPILOT01",
                    "CDISCPILOT01",
                    "CDISCPILOT01",
                    "CDISCPILOT01",
                    "CDISCPILOT01",
                    "CDISCPILOT01",
                    "CDISCPILOT01",
                    "CDISCPILOT01",
                    "CDISCPILOT01",
                    "CDISCPILOT01",
                    "CDISCPILOT01",
                    "CDISCPILOT01",
                    "CDISCPILOT01",
                    "CDISCPILOT01",
                    "CDISCPILOT01",
                    "CDISCPILOT01",
                    "CDISCPILOT01",
                    "CDISCPILOT01",
                    "CDISCPILOT01",
                    "CDISCPILOT01",
                    "CDISCPILOT01",
                    "CDISCPILOT01",
                    "CDISCPILOT01",
                    "CDISCPILOT01",
                    "CDISCPILOT01",
                    "CDISCPILOT01",
                    "CDISCPILOT01",
                    "CDISCPILOT01",
                    "CDISCPILOT01",
                    "CDISCPILOT01",
                    "CDISCPILOT01",
                    "CDISCPILOT01",
                    "CDISCPILOT01",
                    "CDISCPILOT01",
                    "CDISCPILOT01",
                    "CDISCPILOT01",
                    "CDISCPILOT01",
                    "CDISCPILOT01",
                    "CDISCPILOT01",
                    "CDISCPILOT01",
                    "CDISCPILOT01",
                    "CDISCPILOT01",
                    "CDISCPILOT01",
                    "CDISCPILOT01",
                    "CDISCPILOT01",
                    "CDISCPILOT01",
                    "CDISCPILOT01",
                    "CDISCPILOT01",
                    "CDISCPILOT01",
                    "CDISCPILOT01",
                    "CDISCPILOT01",
                    "CDISCPILOT01",
                    "CDISCPILOT01",
                    "CDISCPILOT01",
                    "CDISCPILOT01",
                    "CDISCPILOT01",
                    "CDISCPILOT01",
                    "CDISCPILOT01",
                    "CDISCPILOT01",
                    "CDISCPILOT01",
                    "CDISCPILOT01",
                    "CDISCPILOT01",
                    "CDISCPILOT01",
                    "CDISCPILOT01",
                    "CDISCPILOT01",
                    "CDISCPILOT01",
                    "CDISCPILOT01",
                    "CDISCPILOT01",
                    "CDISCPILOT01",
                    "CDISCPILOT01",
                    "CDISCPILOT01",
                    "CDISCPILOT01",
                    "CDISCPILOT01",
                    "CDISCPILOT01",
                    "CDISCPILOT01",
                    "CDISCPILOT01",
                    "CDISCPILOT01",
                    "CDISCPILOT01",
                    "CDISCPILOT01",
                    "CDISCPILOT01",
                    "CDISCPILOT01",
                    "CDISCPILOT01",
                    "CDISCPILOT01",
                    "CDISCPILOT01",
                    "CDISCPILOT01",
                    "CDISCPILOT01",
                    "CDISCPILOT01",
                    "CDISCPILOT01",
                    "CDISCPILOT01",
                    "CDISCPILOT01",
                    "CDISCPILOT01",
                    "CDISCPILOT01",
                    "CDISCPILOT01",
                    "CDISCPILOT01",
                    "CDISCPILOT01",
                    "CDISCPILOT01",
                    "CDISCPILOT01",
                    "CDISCPILOT01",
                    "CDISCPILOT01",
                    "CDISCPILOT01",
                    "CDISCPILOT01",
                    "CDISCPILOT01",
                    "CDISCPILOT01",
                    "CDISCPILOT01",
                    "CDISCPILOT01",
                    "CDISCPILOT01",
                    "CDISCPILOT01",
                    "CDISCPILOT01",
                    "CDISCPILOT01",
                    "CDISCPILOT01",
                    "CDISCPILOT01",
                    "CDISCPILOT01",
                    "CDISCPILOT01",
                    "CDISCPILOT01",
                    "CDISCPILOT01",
                    "CDISCPILOT01",
                    "CDISCPILOT01",
                    "CDISCPILOT01",
                    "CDISCPILOT01",
                    "CDISCPILOT01",
                    "CDISCPILOT01",
                    "CDISCPILOT01",
                    "CDISCPILOT01",
                    "CDISCPILOT01",
                    "CDISCPILOT01",
                    "CDISCPILOT01",
                    "CDISCPILOT01",
                    "CDISCPILOT01",
                    "CDISCPILOT01",
                    "CDISCPILOT01",
                    "CDISCPILOT01",
                    "CDISCPILOT01",
                    "CDISCPILOT01",
                    "CDISCPILOT01",
                    "CDISCPILOT01",
                    "CDISCPILOT01",
                    "CDISCPILOT01",
                    "CDISCPILOT01",
                    "CDISCPILOT01",
                    "CDISCPILOT01",
                    "CDISCPILOT01",
                    "CDISCPILOT01",
                    "CDISCPILOT01",
                    "CDISCPILOT01",
                    "CDISCPILOT01",
                    "CDISCPILOT01",
                    "CDISCPILOT01",
                    "CDISCPILOT01",
                    "CDISCPILOT01",
                    "CDISCPILOT01",
                    "CDISCPILOT01",
                    "CDISCPILOT01",
                    "CDISCPILOT01",
                    "CDISCPILOT01",
                    "CDISCPILOT01",
                    "CDISCPILOT01",
                    "CDISCPILOT01",
                    "CDISCPILOT01",
                    "CDISCPILOT01",
                    "CDISCPILOT01",
                    "CDISCPILOT01",
                    "CDISCPILOT01",
                    "CDISCPILOT01",
                    "CDISCPILOT01",
                    "CDISCPILOT01",
                    "CDISCPILOT01",
                    "CDISCPILOT01",
                    "CDISCPILOT01",
                    "CDISCPILOT01",
                    "CDISCPILOT01",
                    "CDISCPILOT01",
                    "CDISCPILOT01",
                    "CDISCPILOT01",
                    "CDISCPILOT01",
                    "CDISCPILOT01",
                    "CDISCPILOT01",
                    "CDISCPILOT01",
                    "CDISCPILOT01",
                    "CDISCPILOT01",
                    "CDISCPILOT01",
                    "CDISCPILOT01",
                    "CDISCPILOT01",
                    "CDISCPILOT01",
                    "CDISCPILOT01",
                    "CDISCPILOT01",
                    "CDISCPILOT01",
                    "CDISCPILOT01",
                    "CDISCPILOT01",
                    "CDISCPILOT01",
                    "CDISCPILOT01",
                    "CDISCPILOT01",
                    "CDISCPILOT01",
                    "CDISCPILOT01",
                    "CDISCPILOT01",
                    "CDISCPILOT01",
                    "CDISCPILOT01",
                    "CDISCPILOT01",
                    "CDISCPILOT01",
                    "CDISCPILOT01",
                    "CDISCPILOT01",
                    "CDISCPILOT01",
                    "CDISCPILOT01",
                    "CDISCPILOT01",
                    "CDISCPILOT01",
                    "CDISCPILOT01",
                    "CDISCPILOT01",
                    "CDISCPILOT01",
                    "CDISCPILOT01",
                    "CDISCPILOT01",
                    "CDISCPILOT01",
                    "CDISCPILOT01",
                    "CDISCPILOT01",
                    "CDISCPILOT01",
                    "CDISCPILOT01",
                    "CDISCPILOT01",
                    "CDISCPILOT01",
                    "CDISCPILOT01",
                    "CDISCPILOT01",
                    "CDISCPILOT01",
                    "CDISCPILOT01",
                    "CDISCPILOT01",
                    "CDISCPILOT01",
                    "CDISCPILOT01",
                    "CDISCPILOT01",
                    "CDISCPILOT01",
                    "CDISCPILOT01",
                    "CDISCPILOT01",
                    "CDISCPILOT01",
                    "CDISCPILOT01",
                    "CDISCPILOT01",
                    "CDISCPILOT01",
                    "CDISCPILOT01",
                    "CDISCPILOT01",
                    "CDISCPILOT01",
                    "CDISCPILOT01",
                    "CDISCPILOT01",
                    "CDISCPILOT01",
                    "CDISCPILOT01",
                    "CDISCPILOT01",
                    "CDISCPILOT01",
                    "CDISCPILOT01",
                    "CDISCPILOT01",
                    "CDISCPILOT01",
                    "CDISCPILOT01",
                    "CDISCPILOT01",
                    "CDISCPILOT01",
                    "CDISCPILOT01",
                    "CDISCPILOT01",
                    "CDISCPILOT01",
                    "CDISCPILOT01",
                    "CDISCPILOT01",
                    "CDISCPILOT01",
                    "CDISCPILOT01",
                    "CDISCPILOT01",
                    "CDISCPILOT01",
                    "CDISCPILOT01",
                    "CDISCPILOT01",
                    "CDISCPILOT01",
                    "CDISCPILOT01",
                    "CDISCPILOT01",
                    "CDISCPILOT01",
                    "CDISCPILOT01",
                    "CDISCPILOT01",
                    "CDISCPILOT01",
                    "CDISCPILOT01",
                    "CDISCPILOT01",
                    "CDISCPILOT01",
                    "CDISCPILOT01",
                    "CDISCPILOT01",
                    "CDISCPILOT01",
                    "CDISCPILOT01",
                    "CDISCPILOT01",
                    "CDISCPILOT01",
                    "CDISCPILOT01",
                    "CDISCPILOT01",
                    "CDISCPILOT01",
                    "CDISCPILOT01",
                    "CDISCPILOT01",
                    "CDISCPILOT01",
                    "CDISCPILOT01",
                    "CDISCPILOT01",
                    "CDISCPILOT01",
                    "CDISCPILOT01",
                    "CDISCPILOT01",
                    "CDISCPILOT01",
                    "CDISCPILOT01",
                    "CDISCPILOT01",
                    "CDISCPILOT01",
                    "CDISCPILOT01",
                    "CDISCPILOT01",
                    "CDISCPILOT01",
                    "CDISCPILOT01",
                    "CDISCPILOT01",
                    "CDISCPILOT01",
                    "CDISCPILOT01",
                    "CDISCPILOT01",
                    "CDISCPILOT01",
                    "CDISCPILOT01",
                    "CDISCPILOT01",
                    "CDISCPILOT01",
                    "CDISCPILOT01",
                    "CDISCPILOT01",
                    "CDISCPILOT01",
                    "CDISCPILOT01",
                    "CDISCPILOT01",
                    "CDISCPILOT01",
                    "CDISCPILOT01",
                    "CDISCPILOT01",
                    "CDISCPILOT01",
                    "CDISCPILOT01",
                    "CDISCPILOT01",
                    "CDISCPILOT01",
                    "CDISCPILOT01",
                    "CDISCPILOT01",
                    "CDISCPILOT01",
                    "CDISCPILOT01",
                    "CDISCPILOT01",
                    "CDISCPILOT01",
                    "CDISCPILOT01",
                    "CDISCPILOT01",
                    "CDISCPILOT01",
                    "CDISCPILOT01",
                    "CDISCPILOT01",
                    "CDISCPILOT01",
                    "CDISCPILOT01",
                    "CDISCPILOT01",
                    "CDISCPILOT01",
                    "CDISCPILOT01",
                    "CDISCPILOT01",
                    "CDISCPILOT01",
                    "CDISCPILOT01",
                    "CDISCPILOT01",
                    "CDISCPILOT01",
                    "CDISCPILOT01",
                    "CDISCPILOT01",
                    "CDISCPILOT01",
                    "CDISCPILOT01",
                    "CDISCPILOT01",
                    "CDISCPILOT01",
                    "CDISCPILOT01",
                    "CDISCPILOT01",
                    "CDISCPILOT01",
                    "CDISCPILOT01",
                    "CDISCPILOT01",
                    "CDISCPILOT01",
                    "CDISCPILOT01",
                    "CDISCPILOT01",
                    "CDISCPILOT01",
                    "CDISCPILOT01",
                    "CDISCPILOT01",
                    "CDISCPILOT01",
                    "CDISCPILOT01",
                    "CDISCPILOT01",
                    "CDISCPILOT01",
                    "CDISCPILOT01",
                    "CDISCPILOT01",
                    "CDISCPILOT01",
                    "CDISCPILOT01",
                    "CDISCPILOT01",
                    "CDISCPILOT01",
                    "CDISCPILOT01",
                    "CDISCPILOT01",
                    "CDISCPILOT01",
                    "CDISCPILOT01",
                    "CDISCPILOT01",
                    "CDISCPILOT01",
                    "CDISCPILOT01",
                    "CDISCPILOT01",
                    "CDISCPILOT01",
                    "CDISCPILOT01",
                    "CDISCPILOT01",
                    "CDISCPILOT01",
                    "CDISCPILOT01",
                    "CDISCPILOT01",
                    "CDISCPILOT01",
                    "CDISCPILOT01",
                    "CDISCPILOT01",
                    "CDISCPILOT01",
                    "CDISCPILOT01",
                    "CDISCPILOT01",
                    "CDISCPILOT01",
                    "CDISCPILOT01",
                    "CDISCPILOT01",
                    "CDISCPILOT01",
                    "CDISCPILOT01",
                    "CDISCPILOT01",
                    "CDISCPILOT01",
                    "CDISCPILOT01",
                    "CDISCPILOT01",
                    "CDISCPILOT01",
                    "CDISCPILOT01",
                    "CDISCPILOT01",
                    "CDISCPILOT01",
                    "CDISCPILOT01",
                    "CDISCPILOT01",
                    "CDISCPILOT01",
                    "CDISCPILOT01",
                    "CDISCPILOT01",
                    "CDISCPILOT01",
                    "CDISCPILOT01",
                    "CDISCPILOT01",
                    "CDISCPILOT01",
                    "CDISCPILOT01",
                    "CDISCPILOT01",
                    "CDISCPILOT01",
                    "CDISCPILOT01",
                    "CDISCPILOT01",
                    "CDISCPILOT01",
                    "CDISCPILOT01",
                    "CDISCPILOT01",
                    "CDISCPILOT01",
                    "CDISCPILOT01",
                    "CDISCPILOT01",
                    "CDISCPILOT01",
                    "CDISCPILOT01",
                    "CDISCPILOT01",
                    "CDISCPILOT01",
                    "CDISCPILOT01",
                    "CDISCPILOT01",
                    "CDISCPILOT01",
                    "CDISCPILOT01",
                    "CDISCPILOT01",
                    "CDISCPILOT01",
                    "CDISCPILOT01",
                    "CDISCPILOT01",
                    "CDISCPILOT01",
                    "CDISCPILOT01",
                    "CDISCPILOT01",
                    "CDISCPILOT01",
                    "CDISCPILOT01",
                    "CDISCPILOT01",
                    "CDISCPILOT01",
                    "CDISCPILOT01",
                    "CDISCPILOT01",
                    "CDISCPILOT01",
                    "CDISCPILOT01",
                    "CDISCPILOT01",
                    "CDISCPILOT01",
                    "CDISCPILOT01",
                    "CDISCPILOT01",
                    "CDISCPILOT01",
                    "CDISCPILOT01",
                    "CDISCPILOT01",
                    "CDISCPILOT01",
                    "CDISCPILOT01",
                    "CDISCPILOT01",
                    "CDISCPILOT01",
                    "CDISCPILOT01",
                    "CDISCPILOT01",
                    "CDISCPILOT01",
                    "CDISCPILOT01",
                    "CDISCPILOT01",
                    "CDISCPILOT01",
                    "CDISCPILOT01",
                    "CDISCPILOT01",
                    "CDISCPILOT01",
                    "CDISCPILOT01",
                    "CDISCPILOT01",
                    "CDISCPILOT01",
                    "CDISCPILOT01",
                    "CDISCPILOT01",
                    "CDISCPILOT01",
                    "CDISCPILOT01",
                    "CDISCPILOT01",
                    "CDISCPILOT01",
                    "CDISCPILOT01",
                    "CDISCPILOT01",
                    "CDISCPILOT01",
                    "CDISCPILOT01",
                    "CDISCPILOT01",
                    "CDISCPILOT01",
                    "CDISCPILOT01",
                    "CDISCPILOT01",
                    "CDISCPILOT01",
                    "CDISCPILOT01",
                    "CDISCPILOT01",
                    "CDISCPILOT01",
                    "CDISCPILOT01",
                    "CDISCPILOT01",
                    "CDISCPILOT01",
                    "CDISCPILOT01",
                    "CDISCPILOT01",
                    "CDISCPILOT01",
                    "CDISCPILOT01",
                    "CDISCPILOT01",
                    "CDISCPILOT01",
                    "CDISCPILOT01",
                    "CDISCPILOT01",
                    "CDISCPILOT01",
                    "CDISCPILOT01",
                    "CDISCPILOT01",
                    "CDISCPILOT01",
                    "CDISCPILOT01",
                    "CDISCPILOT01",
                    "CDISCPILOT01",
                    "CDISCPILOT01",
                    "CDISCPILOT01",
                    "CDISCPILOT01",
                    "CDISCPILOT01",
                    "CDISCPILOT01",
                    "CDISCPILOT01",
                    "CDISCPILOT01",
                    "CDISCPILOT01",
                    "CDISCPILOT01",
                    "CDISCPILOT01",
                    "CDISCPILOT01",
                    "CDISCPILOT01",
                    "CDISCPILOT01",
                    "CDISCPILOT01",
                    "CDISCPILOT01",
                    "CDISCPILOT01",
                    "CDISCPILOT01",
                    "CDISCPILOT01",
                    "CDISCPILOT01",
                    "CDISCPILOT01",
                    "CDISCPILOT01",
                    "CDISCPILOT01",
                    "CDISCPILOT01",
                    "CDISCPILOT01",
                    "CDISCPILOT01",
                    "CDISCPILOT01",
                    "CDISCPILOT01",
                    "CDISCPILOT01",
                    "CDISCPILOT01",
                    "CDISCPILOT01",
                    "CDISCPILOT01",
                    "CDISCPILOT01",
                    "CDISCPILOT01",
                    "CDISCPILOT01",
                    "CDISCPILOT01",
                    "CDISCPILOT01",
                    "CDISCPILOT01",
                    "CDISCPILOT01",
                    "CDISCPILOT01",
                    "CDISCPILOT01",
                    "CDISCPILOT01",
                    "CDISCPILOT01",
                    "CDISCPILOT01",
                    "CDISCPILOT01",
                    "CDISCPILOT01",
                    "CDISCPILOT01",
                    "CDISCPILOT01",
                    "CDISCPILOT01",
                    "CDISCPILOT01",
                    "CDISCPILOT01",
                    "CDISCPILOT01",
                    "CDISCPILOT01",
                    "CDISCPILOT01",
                    "CDISCPILOT01",
                    "CDISCPILOT01",
                    "CDISCPILOT01",
                    "CDISCPILOT01",
                    "CDISCPILOT01",
                    "CDISCPILOT01",
                    "CDISCPILOT01",
                    "CDISCPILOT01",
                    "CDISCPILOT01",
                    "CDISCPILOT01",
                    "CDISCPILOT01",
                    "CDISCPILOT01",
                    "CDISCPILOT01",
                    "CDISCPILOT01",
                    "CDISCPILOT01",
                    "CDISCPILOT01",
                    "CDISCPILOT01",
                    "CDISCPILOT01",
                    "CDISCPILOT01",
                    "CDISCPILOT01",
                    "CDISCPILOT01",
                    "CDISCPILOT01",
                    "CDISCPILOT01",
                    "CDISCPILOT01",
                    "CDISCPILOT01",
                    "CDISCPILOT01",
                    "CDISCPILOT01",
                    "CDISCPILOT01",
                    "CDISCPILOT01",
                    "CDISCPILOT01",
                    "CDISCPILOT01",
                    "CDISCPILOT01",
                    "CDISCPILOT01",
                    "CDISCPILOT01",
                    "CDISCPILOT01",
                    "CDISCPILOT01",
                    "CDISCPILOT01",
                    "CDISCPILOT01",
                    "CDISCPILOT01",
                    "CDISCPILOT01",
                    "CDISCPILOT01",
                    "CDISCPILOT01",
                    "CDISCPILOT01",
                    "CDISCPILOT01",
                    "CDISCPILOT01",
                    "CDISCPILOT01",
                    "CDISCPILOT01",
                    "CDISCPILOT01",
                    "CDISCPILOT01",
                    "CDISCPILOT01",
                    "CDISCPILOT01",
                    "CDISCPILOT01",
                    "CDISCPILOT01",
                    "CDISCPILOT01",
                    "CDISCPILOT01",
                    "CDISCPILOT01",
                    "CDISCPILOT01",
                    "CDISCPILOT01",
                    "CDISCPILOT01",
                    "CDISCPILOT01",
                    "CDISCPILOT01",
                    "CDISCPILOT01",
                    "CDISCPILOT01",
                    "CDISCPILOT01",
                    "CDISCPILOT01",
                    "CDISCPILOT01",
                    "CDISCPILOT01",
                    "CDISCPILOT01",
                    "CDISCPILOT01",
                    "CDISCPILOT01",
                    "CDISCPILOT01",
                    "CDISCPILOT01"
                ],
                "DOMAIN": [
                    "EC",
                    "EC",
                    "EC",
                    "EC",
                    "EC",
                    "EC",
                    "EC",
                    "EC",
                    "EC",
                    "EC",
                    "EC",
                    "EC",
                    "EC",
                    "EC",
                    "EC",
                    "EC",
                    "EC",
                    "EC",
                    "EC",
                    "EC",
                    "EC",
                    "EC",
                    "EC",
                    "EC",
                    "EC",
                    "EC",
                    "EC",
                    "EC",
                    "EC",
                    "EC",
                    "EC",
                    "EC",
                    "EC",
                    "EC",
                    "EC",
                    "EC",
                    "EC",
                    "EC",
                    "EC",
                    "EC",
                    "EC",
                    "EC",
                    "EC",
                    "EC",
                    "EC",
                    "EC",
                    "EC",
                    "EC",
                    "EC",
                    "EC",
                    "EC",
                    "EC",
                    "EC",
                    "EC",
                    "EC",
                    "EC",
                    "EC",
                    "EC",
                    "EC",
                    "EC",
                    "EC",
                    "EC",
                    "EC",
                    "EC",
                    "EC",
                    "EC",
                    "EC",
                    "EC",
                    "EC",
                    "EC",
                    "EC",
                    "EC",
                    "EC",
                    "EC",
                    "EC",
                    "EC",
                    "EC",
                    "EC",
                    "EC",
                    "EC",
                    "EC",
                    "EC",
                    "EC",
                    "EC",
                    "EC",
                    "EC",
                    "EC",
                    "EC",
                    "EC",
                    "EC",
                    "EC",
                    "EC",
                    "EC",
                    "EC",
                    "EC",
                    "EC",
                    "EC",
                    "EC",
                    "EC",
                    "EC",
                    "EC",
                    "EC",
                    "EC",
                    "EC",
                    "EC",
                    "EC",
                    "EC",
                    "EC",
                    "EC",
                    "EC",
                    "EC",
                    "EC",
                    "EC",
                    "EC",
                    "EC",
                    "EC",
                    "EC",
                    "EC",
                    "EC",
                    "EC",
                    "EC",
                    "EC",
                    "EC",
                    "EC",
                    "EC",
                    "EC",
                    "EC",
                    "EC",
                    "EC",
                    "EC",
                    "EC",
                    "EC",
                    "EC",
                    "EC",
                    "EC",
                    "EC",
                    "EC",
                    "EC",
                    "EC",
                    "EC",
                    "EC",
                    "EC",
                    "EC",
                    "EC",
                    "EC",
                    "EC",
                    "EC",
                    "EC",
                    "EC",
                    "EC",
                    "EC",
                    "EC",
                    "EC",
                    "EC",
                    "EC",
                    "EC",
                    "EC",
                    "EC",
                    "EC",
                    "EC",
                    "EC",
                    "EC",
                    "EC",
                    "EC",
                    "EC",
                    "EC",
                    "EC",
                    "EC",
                    "EC",
                    "EC",
                    "EC",
                    "EC",
                    "EC",
                    "EC",
                    "EC",
                    "EC",
                    "EC",
                    "EC",
                    "EC",
                    "EC",
                    "EC",
                    "EC",
                    "EC",
                    "EC",
                    "EC",
                    "EC",
                    "EC",
                    "EC",
                    "EC",
                    "EC",
                    "EC",
                    "EC",
                    "EC",
                    "EC",
                    "EC",
                    "EC",
                    "EC",
                    "EC",
                    "EC",
                    "EC",
                    "EC",
                    "EC",
                    "EC",
                    "EC",
                    "EC",
                    "EC",
                    "EC",
                    "EC",
                    "EC",
                    "EC",
                    "EC",
                    "EC",
                    "EC",
                    "EC",
                    "EC",
                    "EC",
                    "EC",
                    "EC",
                    "EC",
                    "EC",
                    "EC",
                    "EC",
                    "EC",
                    "EC",
                    "EC",
                    "EC",
                    "EC",
                    "EC",
                    "EC",
                    "EC",
                    "EC",
                    "EC",
                    "EC",
                    "EC",
                    "EC",
                    "EC",
                    "EC",
                    "EC",
                    "EC",
                    "EC",
                    "EC",
                    "EC",
                    "EC",
                    "EC",
                    "EC",
                    "EC",
                    "EC",
                    "EC",
                    "EC",
                    "EC",
                    "EC",
                    "EC",
                    "EC",
                    "EC",
                    "EC",
                    "EC",
                    "EC",
                    "EC",
                    "EC",
                    "EC",
                    "EC",
                    "EC",
                    "EC",
                    "EC",
                    "EC",
                    "EC",
                    "EC",
                    "EC",
                    "EC",
                    "EC",
                    "EC",
                    "EC",
                    "EC",
                    "EC",
                    "EC",
                    "EC",
                    "EC",
                    "EC",
                    "EC",
                    "EC",
                    "EC",
                    "EC",
                    "EC",
                    "EC",
                    "EC",
                    "EC",
                    "EC",
                    "EC",
                    "EC",
                    "EC",
                    "EC",
                    "EC",
                    "EC",
                    "EC",
                    "EC",
                    "EC",
                    "EC",
                    "EC",
                    "EC",
                    "EC",
                    "EC",
                    "EC",
                    "EC",
                    "EC",
                    "EC",
                    "EC",
                    "EC",
                    "EC",
                    "EC",
                    "EC",
                    "EC",
                    "EC",
                    "EC",
                    "EC",
                    "EC",
                    "EC",
                    "EC",
                    "EC",
                    "EC",
                    "EC",
                    "EC",
                    "EC",
                    "EC",
                    "EC",
                    "EC",
                    "EC",
                    "EC",
                    "EC",
                    "EC",
                    "EC",
                    "EC",
                    "EC",
                    "EC",
                    "EC",
                    "EC",
                    "EC",
                    "EC",
                    "EC",
                    "EC",
                    "EC",
                    "EC",
                    "EC",
                    "EC",
                    "EC",
                    "EC",
                    "EC",
                    "EC",
                    "EC",
                    "EC",
                    "EC",
                    "EC",
                    "EC",
                    "EC",
                    "EC",
                    "EC",
                    "EC",
                    "EC",
                    "EC",
                    "EC",
                    "EC",
                    "EC",
                    "EC",
                    "EC",
                    "EC",
                    "EC",
                    "EC",
                    "EC",
                    "EC",
                    "EC",
                    "EC",
                    "EC",
                    "EC",
                    "EC",
                    "EC",
                    "EC",
                    "EC",
                    "EC",
                    "EC",
                    "EC",
                    "EC",
                    "EC",
                    "EC",
                    "EC",
                    "EC",
                    "EC",
                    "EC",
                    "EC",
                    "EC",
                    "EC",
                    "EC",
                    "EC",
                    "EC",
                    "EC",
                    "EC",
                    "EC",
                    "EC",
                    "EC",
                    "EC",
                    "EC",
                    "EC",
                    "EC",
                    "EC",
                    "EC",
                    "EC",
                    "EC",
                    "EC",
                    "EC",
                    "EC",
                    "EC",
                    "EC",
                    "EC",
                    "EC",
                    "EC",
                    "EC",
                    "EC",
                    "EC",
                    "EC",
                    "EC",
                    "EC",
                    "EC",
                    "EC",
                    "EC",
                    "EC",
                    "EC",
                    "EC",
                    "EC",
                    "EC",
                    "EC",
                    "EC",
                    "EC",
                    "EC",
                    "EC",
                    "EC",
                    "EC",
                    "EC",
                    "EC",
                    "EC",
                    "EC",
                    "EC",
                    "EC",
                    "EC",
                    "EC",
                    "EC",
                    "EC",
                    "EC",
                    "EC",
                    "EC",
                    "EC",
                    "EC",
                    "EC",
                    "EC",
                    "EC",
                    "EC",
                    "EC",
                    "EC",
                    "EC",
                    "EC",
                    "EC",
                    "EC",
                    "EC",
                    "EC",
                    "EC",
                    "EC",
                    "EC",
                    "EC",
                    "EC",
                    "EC",
                    "EC",
                    "EC",
                    "EC",
                    "EC",
                    "EC",
                    "EC",
                    "EC",
                    "EC",
                    "EC",
                    "EC",
                    "EC",
                    "EC",
                    "EC",
                    "EC",
                    "EC",
                    "EC",
                    "EC",
                    "EC",
                    "EC",
                    "EC",
                    "EC",
                    "EC",
                    "EC",
                    "EC",
                    "EC",
                    "EC",
                    "EC",
                    "EC",
                    "EC",
                    "EC",
                    "EC",
                    "EC",
                    "EC",
                    "EC",
                    "EC",
                    "EC",
                    "EC",
                    "EC",
                    "EC",
                    "EC",
                    "EC",
                    "EC",
                    "EC",
                    "EC",
                    "EC",
                    "EC",
                    "EC",
                    "EC",
                    "EC",
                    "EC",
                    "EC",
                    "EC",
                    "EC",
                    "EC",
                    "EC",
                    "EC",
                    "EC",
                    "EC",
                    "EC",
                    "EC",
                    "EC",
                    "EC",
                    "EC",
                    "EC",
                    "EC",
                    "EC",
                    "EC",
                    "EC",
                    "EC",
                    "EC",
                    "EC",
                    "EC",
                    "EC",
                    "EC",
                    "EC",
                    "EC",
                    "EC",
                    "EC",
                    "EC",
                    "EC",
                    "EC",
                    "EC",
                    "EC",
                    "EC",
                    "EC",
                    "EC",
                    "EC",
                    "EC",
                    "EC",
                    "EC",
                    "EC",
                    "EC",
                    "EC",
                    "EC",
                    "EC",
                    "EC",
                    "EC",
                    "EC",
                    "EC",
                    "EC",
                    "EC",
                    "EC",
                    "EC",
                    "EC",
                    "EC",
                    "EC",
                    "EC",
                    "EC",
                    "EC",
                    "EC",
                    "EC",
                    "EC",
                    "EC",
                    "EC",
                    "EC",
                    "EC",
                    "EC",
                    "EC",
                    "EC",
                    "EC",
                    "EC",
                    "EC",
                    "EC",
                    "EC",
                    "EC",
                    "EC",
                    "EC",
                    "EC",
                    "EC",
                    "EC",
                    "EC",
                    "EC",
                    "EC",
                    "EC",
                    "EC",
                    "EC",
                    "EC",
                    "EC",
                    "EC",
                    "EC",
                    "EC",
                    "EC",
                    "EC",
                    "EC",
                    "EC",
                    "EC",
                    "EC",
                    "EC",
                    "EC",
                    "EC",
                    "EC",
                    "EC",
                    "EC",
                    "EC",
                    "EC",
                    "EC",
                    "EC",
                    "EC",
                    "EC",
                    "EC",
                    "EC",
                    "EC",
                    "EC",
                    "EC",
                    "EC",
                    "EC",
                    "EC",
                    "EC",
                    "EC",
                    "EC",
                    "EC",
                    "EC",
                    "EC",
                    "EC",
                    "EC",
                    "EC",
                    "EC",
                    "EC",
                    "EC",
                    "EC",
                    "EC",
                    "EC",
                    "EC",
                    "EC",
                    "EC",
                    "EC",
                    "EC",
                    "EC",
                    "EC",
                    "EC",
                    "EC",
                    "EC",
                    "EC",
                    "EC",
                    "EC",
                    "EC",
                    "EC",
                    "EC",
                    "EC",
                    "EC",
                    "EC",
                    "EC",
                    "EC",
                    "EC",
                    "EC",
                    "EC",
                    "EC",
                    "EC",
                    "EC",
                    "EC",
                    "EC",
                    "EC",
                    "EC",
                    "EC",
                    "EC",
                    "EC",
                    "EC",
                    "EC",
                    "EC",
                    "EC",
                    "EC",
                    "EC",
                    "EC",
                    "EC",
                    "EC",
                    "EC",
                    "EC",
                    "EC",
                    "EC",
                    "EC",
                    "EC",
                    "EC",
                    "EC",
                    "EC",
                    "EC",
                    "EC",
                    "EC",
                    "EC",
                    "EC",
                    "EC",
                    "EC",
                    "EC",
                    "EC",
                    "EC",
                    "EC",
                    "EC",
                    "EC",
                    "EC",
                    "EC",
                    "EC",
                    "EC",
                    "EC",
                    "EC",
                    "EC",
                    "EC",
                    "EC",
                    "EC",
                    "EC",
                    "EC",
                    "EC",
                    "EC",
                    "EC",
                    "EC",
                    "EC",
                    "EC",
                    "EC",
                    "EC",
                    "EC",
                    "EC",
                    "EC",
                    "EC",
                    "EC",
                    "EC",
                    "EC",
                    "EC",
                    "EC",
                    "EC",
                    "EC",
                    "EC",
                    "EC",
                    "EC",
                    "EC",
                    "EC",
                    "EC",
                    "EC",
                    "EC",
                    "EC",
                    "EC",
                    "EC",
                    "EC",
                    "EC",
                    "EC",
                    "EC",
                    "EC",
                    "EC",
                    "EC",
                    "EC",
                    "EC",
                    "EC",
                    "EC",
                    "EC",
                    "EC",
                    "EC",
                    "EC",
                    "EC",
                    "EC",
                    "EC",
                    "EC",
                    "EC",
                    "EC",
                    "EC",
                    "EC",
                    "EC",
                    "EC",
                    "EC",
                    "EC",
                    "EC",
                    "EC",
                    "EC",
                    "EC",
                    "EC",
                    "EC",
                    "EC",
                    "EC",
                    "EC",
                    "EC",
                    "EC",
                    "EC",
                    "EC",
                    "EC",
                    "EC",
                    "EC",
                    "EC",
                    "EC",
                    "EC",
                    "EC",
                    "EC",
                    "EC",
                    "EC",
                    "EC",
                    "EC",
                    "EC",
                    "EC",
                    "EC",
                    "EC",
                    "EC",
                    "EC",
                    "EC",
                    "EC",
                    "EC",
                    "EC",
                    "EC",
                    "EC",
                    "EC",
                    "EC",
                    "EC",
                    "EC",
                    "EC",
                    "EC",
                    "EC",
                    "EC",
                    "EC",
                    "EC",
                    "EC",
                    "EC",
                    "EC",
                    "EC",
                    "EC",
                    "EC",
                    "EC",
                    "EC",
                    "EC",
                    "EC",
                    "EC",
                    "EC",
                    "EC",
                    "EC",
                    "EC",
                    "EC",
                    "EC",
                    "EC",
                    "EC",
                    "EC",
                    "EC",
                    "EC",
                    "EC",
                    "EC",
                    "EC",
                    "EC",
                    "EC",
                    "EC",
                    "EC",
                    "EC",
                    "EC",
                    "EC",
                    "EC",
                    "EC",
                    "EC",
                    "EC",
                    "EC",
                    "EC",
                    "EC",
                    "EC",
                    "EC",
                    "EC",
                    "EC",
                    "EC",
                    "EC",
                    "EC",
                    "EC",
                    "EC",
                    "EC",
                    "EC",
                    "EC",
                    "EC",
                    "EC",
                    "EC",
                    "EC",
                    "EC",
                    "EC",
                    "EC",
                    "EC",
                    "EC",
                    "EC",
                    "EC",
                    "EC",
                    "EC",
                    "EC",
                    "EC",
                    "EC",
                    "EC",
                    "EC",
                    "EC",
                    "EC",
                    "EC",
                    "EC",
                    "EC",
                    "EC",
                    "EC",
                    "EC",
                    "EC",
                    "EC",
                    "EC",
                    "EC",
                    "EC",
                    "EC",
                    "EC",
                    "EC",
                    "EC",
                    "EC",
                    "EC",
                    "EC",
                    "EC",
                    "EC",
                    "EC",
                    "EC",
                    "EC",
                    "EC",
                    "EC",
                    "EC",
                    "EC",
                    "EC",
                    "EC",
                    "EC",
                    "EC",
                    "EC",
                    "EC",
                    "EC",
                    "EC",
                    "EC",
                    "EC",
                    "EC",
                    "EC",
                    "EC",
                    "EC",
                    "EC",
                    "EC",
                    "EC",
                    "EC",
                    "EC",
                    "EC",
                    "EC",
                    "EC",
                    "EC",
                    "EC",
                    "EC",
                    "EC",
                    "EC",
                    "EC",
                    "EC",
                    "EC",
                    "EC",
                    "EC",
                    "EC",
                    "EC",
                    "EC",
                    "EC",
                    "EC",
                    "EC",
                    "EC",
                    "EC",
                    "EC",
                    "EC",
                    "EC",
                    "EC",
                    "EC",
                    "EC",
                    "EC",
                    "EC",
                    "EC",
                    "EC",
                    "EC",
                    "EC",
                    "EC",
                    "EC",
                    "EC",
                    "EC",
                    "EC",
                    "EC",
                    "EC",
                    "EC",
                    "EC",
                    "EC",
                    "EC",
                    "EC",
                    "EC",
                    "EC",
                    "EC",
                    "EC",
                    "EC",
                    "EC",
                    "EC",
                    "EC",
                    "EC",
                    "EC",
                    "EC",
                    "EC",
                    "EC",
                    "EC",
                    "EC",
                    "EC",
                    "EC",
                    "EC",
                    "EC",
                    "EC",
                    "EC",
                    "EC",
                    "EC",
                    "EC",
                    "EC",
                    "EC",
                    "EC",
                    "EC",
                    "EC",
                    "EC",
                    "EC",
                    "EC",
                    "EC",
                    "EC",
                    "EC",
                    "EC",
                    "EC",
                    "EC",
                    "EC",
                    "EC",
                    "EC",
                    "EC",
                    "EC",
                    "EC",
                    "EC",
                    "EC",
                    "EC",
                    "EC",
                    "EC",
                    "EC",
                    "EC",
                    "EC",
                    "EC",
                    "EC",
                    "EC",
                    "EC",
                    "EC",
                    "EC",
                    "EC",
                    "EC",
                    "EC",
                    "EC",
                    "EC",
                    "EC",
                    "EC",
                    "EC",
                    "EC",
                    "EC",
                    "EC",
                    "EC",
                    "EC",
                    "EC",
                    "EC",
                    "EC",
                    "EC",
                    "EC",
                    "EC",
                    "EC",
                    "EC",
                    "EC",
                    "EC",
                    "EC",
                    "EC",
                    "EC",
                    "EC",
                    "EC",
                    "EC",
                    "EC",
                    "EC",
                    "EC",
                    "EC",
                    "EC",
                    "EC",
                    "EC",
                    "EC",
                    "EC",
                    "EC",
                    "EC",
                    "EC",
                    "EC",
                    "EC",
                    "EC",
                    "EC",
                    "EC",
                    "EC",
                    "EC",
                    "EC",
                    "EC",
                    "EC",
                    "EC",
                    "EC",
                    "EC",
                    "EC",
                    "EC",
                    "EC",
                    "EC",
                    "EC",
                    "EC",
                    "EC",
                    "EC",
                    "EC",
                    "EC",
                    "EC",
                    "EC",
                    "EC",
                    "EC",
                    "EC",
                    "EC",
                    "EC",
                    "EC",
                    "EC",
                    "EC",
                    "EC",
                    "EC",
                    "EC",
                    "EC",
                    "EC",
                    "EC",
                    "EC",
                    "EC",
                    "EC",
                    "EC",
                    "EC",
                    "EC",
                    "EC",
                    "EC",
                    "EC",
                    "EC",
                    "EC",
                    "EC",
                    "EC",
                    "EC",
                    "EC",
                    "EC",
                    "EC",
                    "EC",
                    "EC",
                    "EC",
                    "EC",
                    "EC",
                    "EC",
                    "EC",
                    "EC",
                    "EC",
                    "EC",
                    "EC",
                    "EC",
                    "EC",
                    "EC",
                    "EC",
                    "EC",
                    "EC",
                    "EC",
                    "EC",
                    "EC",
                    "EC",
                    "EC",
                    "EC",
                    "EC",
                    "EC",
                    "EC",
                    "EC",
                    "EC",
                    "EC",
                    "EC",
                    "EC",
                    "EC",
                    "EC",
                    "EC",
                    "EC",
                    "EC",
                    "EC",
                    "EC",
                    "EC",
                    "EC",
                    "EC",
                    "EC",
                    "EC",
                    "EC",
                    "EC",
                    "EC",
                    "EC",
                    "EC",
                    "EC",
                    "EC",
                    "EC",
                    "EC",
                    "EC",
                    "EC",
                    "EC",
                    "EC",
                    "EC",
                    "EC",
                    "EC",
                    "EC",
                    "EC",
                    "EC",
                    "EC",
                    "EC",
                    "EC",
                    "EC",
                    "EC",
                    "EC",
                    "EC",
                    "EC",
                    "EC",
                    "EC",
                    "EC",
                    "EC",
                    "EC",
                    "EC",
                    "EC",
                    "EC",
                    "EC",
                    "EC",
                    "EC",
                    "EC",
                    "EC",
                    "EC",
                    "EC",
                    "EC",
                    "EC",
                    "EC",
                    "EC",
                    "EC",
                    "EC",
                    "EC",
                    "EC",
                    "EC",
                    "EC",
                    "EC",
